trial_id,word,article,correct_type,obj_image,sub_image,phrase,trial_type,thisN,thisTrialN,thisRepN,key_resp.keys,trials_loop.thisRepN,trials_loop.thisTrialN,trials_loop.thisN,trials_loop.thisIndex,thisRow.t,notes,instruction.started,Welcome.started,start_key.started,instruction.stopped,start_key.keys,start_key.rt,start_key.duration,trial.started,sentence.started,image_left.started,image_right.started,key_resp.started,mouse.started,trial.stopped,trials_loop.key_resp.keys,response,rt,response_method,correct_response,accuracy,trials_loop.mouse.x,trials_loop.mouse.y,trials_loop.mouse.leftButton,trials_loop.mouse.midButton,trials_loop.mouse.rightButton,trials_loop.mouse.time,participant,session,date,expName,psychopyVersion,frameRate,expStart,
,,,,,,,,,,,,,,,,,,0.02584112505428493,0.03125333413481712,0.03125333413481712,8.946016292087734,f,8.624540833057836,None,,,,,,,,,,,,,,,,,,,,248347,001,2026-04-25_15h45.18.244,experiment,2024.2.4,None,2026-04-25 15h45.29.259498 -0700,
27,fusk,a,obj,o21.png,s25.png,look,critical,0,0,0,None,0,0,0,26,9.36907787504606,,,,,,,,,9.234263917198405,9.36907787504606,9.36907787504606,9.36907787504606,9.36907787504606,0.2882512081414461,15.583378459094092,None,f,0,mouse,j,0,,,,,,,248347,001,2026-04-25_15h45.18.244,experiment,2024.2.4,None,2026-04-25 15h45.29.259498 -0700,
83,kreet,None,sub,o15.png,s22.png,that_is,filler,1,1,0,None,0,1,1,82,15.901927875122055,,,,,,,,,15.895911084022373,15.901927875122055,15.901927875122055,15.901927875122055,15.901927875122055,0.3078806248959154,17.69971933402121,None,j,0,mouse,j,1,[-0.39],[-0.011666666666666667],[1],[0],[0],[6.348867000080645],248347,001,2026-04-25_15h45.18.244,experiment,2024.2.4,None,2026-04-25 15h45.29.259498 -0700,
59,kal,None,sub,o2.png,s19.png,look,critical,2,2,0,None,0,2,2,58,17.86479554208927,,,,,,,,,17.860391459194943,17.86479554208927,17.86479554208927,17.86479554208927,17.86479554208927,0.1600134999025613,18.52251037512906,None,j,0,mouse,j,1,[0.4116666666666667],[-0.045],[1],[0],[0],[1.8035971249919385],248347,001,2026-04-25_15h45.18.244,experiment,2024.2.4,None,2026-04-25 15h45.29.259498 -0700,
65,poy,None,sub,o21.png,s21.png,there_is,filler,3,3,0,None,0,3,3,64,18.823518458986655,,,,,,,,,18.818760209018365,18.823518458986655,18.823518458986655,18.823518458986655,18.823518458986655,0.29559016693383455,19.53795541706495,None,f,0,mouse,f,1,[0.41],[-0.045],[1],[0],[0],[0.6619211249053478],248347,001,2026-04-25_15h45.18.244,experiment,2024.2.4,None,2026-04-25 15h45.29.259498 -0700,
40,wug,None,sub,o10.png,s24.png,there_is,filler,4,4,0,None,0,4,4,39,19.840124875074252,,,,,,,,,19.835565875051543,19.840124875074252,19.840124875074252,19.840124875074252,19.840124875074252,0.29694866691716015,20.46614804212004,None,j,0,mouse,f,0,[-0.5116666666666667],[-0.05],[1],[0],[0],[0.7189998750109226],248347,001,2026-04-25_15h45.18.244,experiment,2024.2.4,None,2026-04-25 15h45.29.259498 -0700,
4,tarb,a,obj,o20.png,s24.png,look,critical,5,5,0,None,0,5,5,3,20.756722000194713,,,,,,,,,20.747434750199318,20.756722000194713,20.756722000194713,20.756722000194713,20.756722000194713,0.28067241702228785,21.489097750047222,None,f,0,mouse,f,1,[0.25333333333333335],[0.016666666666666666],[1],[0],[0],[0.6303859171457589],248347,001,2026-04-25_15h45.18.244,experiment,2024.2.4,None,2026-04-25 15h45.29.259498 -0700,
92,phrup,None,sub,o7.png,s7.png,look,critical,6,6,0,None,0,6,6,91,21.779300209134817,,,,,,,,,21.77484054211527,21.779300209134817,21.779300209134817,21.779300209134817,21.779300209134817,0.28506804117932916,22.61630337499082,None,j,0,mouse,f,0,[-0.395],[0.013333333333333334],[1],[0],[0],[0.7414572080597281],248347,001,2026-04-25_15h45.18.244,experiment,2024.2.4,None,2026-04-25 15h45.29.259498 -0700,
38,boarse,a,obj,o7.png,s21.png,look,critical,7,7,0,None,0,7,7,37,22.9099006250035,,,,,,,,,22.905809667194262,22.9099006250035,22.9099006250035,22.9099006250035,22.9099006250035,0.28884829208254814,24.1995551250875,None,f,0,mouse,j,0,[0.3983333333333333],[-0.013333333333333334],[1],[0],[0],[0.8412677079904824],248347,001,2026-04-25_15h45.18.244,experiment,2024.2.4,None,2026-04-25 15h45.29.259498 -0700,
57,ses,None,sub,o9.png,s25.png,there_is,filler,8,8,0,None,0,8,8,56,24.37037141714245,,,,,,,,,24.365843834122643,24.37037141714245,24.37037141714245,24.37037141714245,24.37037141714245,0.16568424995057285,25.567237167153507,None,j,0,mouse,f,0,[-0.4033333333333333],[-0.01],[1],[0],[0],[1.2935709999874234],248347,001,2026-04-25_15h45.18.244,experiment,2024.2.4,None,2026-04-25 15h45.29.259498 -0700,
68,tem,None,sub,o14.png,s25.png,look,critical,9,9,0,None,0,9,9,67,25.734253708971664,,,,,,,,,25.729505292139947,25.734253708971664,25.734253708971664,25.734253708971664,25.734253708971664,0.1616696249693632,26.483337792102247,None,j,0,mouse,f,0,[0.455],[-0.03166666666666667],[1],[0],[0],[1.2011995408684015],248347,001,2026-04-25_15h45.18.244,experiment,2024.2.4,None,2026-04-25 15h45.29.259498 -0700,
70,trebe,None,sub,o18.png,s5.png,that_is,filler,10,10,0,None,0,10,10,69,26.79435795918107,,,,,,,,,26.789742666995153,26.79435795918107,26.79435795918107,26.79435795918107,26.79435795918107,0.3057993750553578,27.571687584044412,None,f,0,mouse,j,0,[0.4583333333333333],[-0.03166666666666667],[1],[0],[0],[0.7536410419270396],248347,001,2026-04-25_15h45.18.244,experiment,2024.2.4,None,2026-04-25 15h45.29.259498 -0700,
55,tarb,None,sub,o2.png,s23.png,look,critical,11,11,0,None,0,11,11,54,27.855167417088524,,,,,,,,,27.850499750114977,27.855167417088524,27.855167417088524,27.855167417088524,27.855167417088524,0.27822295809164643,28.73920225002803,None,j,0,mouse,f,0,[-0.31],[-0.03166666666666667],[1],[0],[0],[0.7817574578803033],248347,001,2026-04-25_15h45.18.244,experiment,2024.2.4,None,2026-04-25 15h45.29.259498 -0700,
81,plyne,None,sub,o20.png,s21.png,that_is,filler,12,12,0,None,0,12,12,80,29.02964304201305,,,,,,,,,29.02552133402787,29.02964304201305,29.02964304201305,29.02964304201305,29.02964304201305,0.28570804209448397,29.766404209192842,None,f,0,mouse,f,1,[0.46166666666666667],[-0.025],[1],[0],[0],[0.8885108330287039],248347,001,2026-04-25_15h45.18.244,experiment,2024.2.4,None,2026-04-25 15h45.29.259498 -0700,
6,trebe,a,obj,o5.png,s22.png,that_is,filler,13,13,0,None,0,13,13,5,30.062788667157292,,,,,,,,,30.057947125053033,30.062788667157292,30.062788667157292,30.062788667157292,30.062788667157292,0.2909180410206318,30.65565204201266,None,j,0,mouse,f,0,[-0.415],[-0.02666666666666667],[1],[0],[0],[0.7406357079744339],248347,001,2026-04-25_15h45.18.244,experiment,2024.2.4,None,2026-04-25 15h45.29.259498 -0700,
37,zeg,None,sub,o11.png,s11.png,look,critical,14,14,0,None,0,14,14,36,30.933741750195622,,,,,,,,,30.929503333987668,30.933741750195622,30.933741750195622,30.933741750195622,30.933741750195622,0.27317333314567804,31.505442542023957,None,f,0,mouse,f,1,[0.3433333333333333],[-0.025],[1],[0],[0],[0.597495875088498],248347,001,2026-04-25_15h45.18.244,experiment,2024.2.4,None,2026-04-25 15h45.29.259498 -0700,
93,ses,a,obj,o20.png,s7.png,look,critical,15,15,0,None,0,15,15,92,31.79047800018452,,,,,,,,,31.785380042158067,31.79047800018452,31.79047800018452,31.79047800018452,31.79047800018452,0.2789486669935286,32.32230241713114,None,j,0,mouse,f,0,[-0.34],[-0.013333333333333334],[1],[0],[0],[0.5756949579808861],248347,001,2026-04-25_15h45.18.244,experiment,2024.2.4,None,2026-04-25 15h45.29.259498 -0700,
34,ses,a,obj,o11.png,s4.png,there_is,filler,16,16,0,None,0,16,16,33,32.47528775013052,,,,,,,,,32.471323292003945,32.47528775013052,32.47528775013052,32.47528775013052,32.47528775013052,0.14835712499916553,33.19959158403799,None,f,0,mouse,f,1,[0.39666666666666667],[0.03166666666666667],[1],[0],[0],[0.5367155829444528],248347,001,2026-04-25_15h45.18.244,experiment,2024.2.4,None,2026-04-25 15h45.29.259498 -0700,
69,boarse,None,sub,o11.png,s17.png,look,critical,17,17,0,None,0,17,17,68,33.46575766708702,,,,,,,,,33.46127995918505,33.46575766708702,33.46575766708702,33.46575766708702,33.46575766708702,0.2610694579780102,34.055303167086095,None,j,0,mouse,j,1,[-0.41],[-0.02],[1],[0],[0],[0.7280907919630408],248347,001,2026-04-25_15h45.18.244,experiment,2024.2.4,None,2026-04-25 15h45.29.259498 -0700,
15,kal,a,obj,o13.png,s13.png,there_is,filler,18,18,0,None,0,18,18,14,34.33657512511127,,,,,,,,,34.332170667126775,34.33657512511127,34.33657512511127,34.33657512511127,34.33657512511127,0.27619229117408395,34.80488825007342,None,j,0,mouse,f,0,[0.43],[0.03],[1],[0],[0],[0.5938323750160635],248347,001,2026-04-25_15h45.18.244,experiment,2024.2.4,None,2026-04-25 15h45.29.259498 -0700,
41,tib,a,obj,o12.png,s3.png,look,critical,19,19,0,None,0,19,19,40,35.09355708397925,,,,,,,,,35.0887534590438,35.09355708397925,35.09355708397925,35.09355708397925,35.09355708397925,0.28319204202853143,35.70535841700621,None,f,0,mouse,f,1,[0.41],[0.02],[1],[0],[0],[0.4725287910550833],248347,001,2026-04-25_15h45.18.244,experiment,2024.2.4,None,2026-04-25 15h45.29.259498 -0700,
1,tib,None,sub,o18.png,s20.png,there_is,filler,20,20,0,None,0,20,20,0,35.99193008407019,,,,,,,,,35.987059958977625,35.99193008407019,35.99193008407019,35.99193008407019,35.99193008407019,0.2809945840854198,36.47207908402197,None,f,0,mouse,j,0,[-0.275],[-0.035],[1],[0],[0],[0.6164073329418898],248347,001,2026-04-25_15h45.18.244,experiment,2024.2.4,None,2026-04-25 15h45.29.259498 -0700,
39,smeck,a,obj,o8.png,s6.png,there_is,filler,21,21,0,None,0,21,21,38,36.77074037515558,,,,,,,,,36.76627800008282,36.77074037515558,36.77074037515558,36.77074037515558,36.77074037515558,0.29353733407333493,37.44972208398394,None,j,0,mouse,j,1,[-0.2833333333333333],[-0.035],[1],[0],[0],[0.48481854191049933],248347,001,2026-04-25_15h45.18.244,experiment,2024.2.4,None,2026-04-25 15h45.29.259498 -0700,
95,tharge,a,obj,o4.png,s23.png,that_is,filler,22,22,0,None,0,22,22,94,37.74202812509611,,,,,,,,,37.737157500116155,37.74202812509611,37.74202812509611,37.74202812509611,37.74202812509611,0.28681499999947846,38.61602179217152,None,j,0,mouse,f,0,[0.36833333333333335],[-0.005],[1],[0],[0],[0.6832589581608772],248347,001,2026-04-25_15h45.18.244,experiment,2024.2.4,None,2026-04-25 15h45.29.259498 -0700,
88,smeck,None,sub,o10.png,s11.png,there_is,filler,23,23,0,None,0,23,23,87,38.9242387090344,,,,,,,,,38.91920070908964,38.9242387090344,38.9242387090344,38.9242387090344,38.9242387090344,0.3025801668409258,39.88303462509066,None,j,0,mouse,f,0,[0.37166666666666665],[0.03166666666666667],[1],[0],[0],[0.8786758750211447],248347,001,2026-04-25_15h45.18.244,experiment,2024.2.4,None,2026-04-25 15h45.29.259498 -0700,
77,praith,a,obj,o2.png,s14.png,there_is,filler,24,24,0,None,0,24,24,76,40.17067929217592,,,,,,,,,40.16604283405468,40.17067929217592,40.17067929217592,40.17067929217592,40.17067929217592,0.28240604186430573,44.971645209006965,None,j,0,mouse,f,0,[0.38333333333333336],[0.035],[1],[0],[0],[0.9636315410025418],248347,001,2026-04-25_15h45.18.244,experiment,2024.2.4,None,2026-04-25 15h45.29.259498 -0700,
58,vow,a,obj,o4.png,s10.png,there_is,filler,25,25,0,None,0,25,25,57,45.254955834010616,,,,,,,,,45.250641209073365,45.254955834010616,45.254955834010616,45.254955834010616,45.254955834010616,0.2783589588943869,47.922818541992456,None,f,0,mouse,f,1,[0.385],[-0.045],[1],[0],[0],[4.805406583007425],248347,001,2026-04-25_15h45.18.244,experiment,2024.2.4,None,2026-04-25 15h45.29.259498 -0700,
71,fusk,None,sub,o23.png,s23.png,look,critical,26,26,0,None,0,26,26,70,48.221010209061205,,,,,,,,,48.21616354212165,48.221010209061205,48.221010209061205,48.221010209061205,48.221010209061205,0.29270608397200704,49.34990995912813,None,j,0,mouse,f,0,[-0.36],[-0.008333333333333333],[1],[0],[0],[2.671992041869089],248347,001,2026-04-25_15h45.18.244,experiment,2024.2.4,None,2026-04-25 15h45.29.259498 -0700,
24,vow,a,obj,o24.png,s22.png,look,critical,27,27,0,None,0,27,27,23,49.624416209058836,,,,,,,,,49.619990084087476,49.624416209058836,49.624416209058836,49.624416209058836,49.624416209058836,0.2694251670036465,50.4166644171346,None,f,0,mouse,j,0,[0.3566666666666667],[-0.0016666666666666668],[1],[0],[0],[1.133511207997799],248347,001,2026-04-25_15h45.18.244,experiment,2024.2.4,None,2026-04-25 15h45.29.259498 -0700,
91,poy,a,obj,o8.png,s5.png,there_is,filler,28,28,0,,0,28,28,90,50.742262667045,,,,,,,,,50.735962375067174,50.742262667045,50.742262667045,50.742262667045,50.742262667045,0.31864920910447836,,,,,,,,[-0.3933333333333333],[-0.065],[1],[0],[0],[0.7964781248010695],,,,,,,,
