trial_id,word,article,correct_type,obj_image,sub_image,phrase,trial_type,thisN,thisTrialN,thisRepN,key_resp.keys,trials_loop.thisRepN,trials_loop.thisTrialN,trials_loop.thisN,trials_loop.thisIndex,thisRow.t,notes,instruction.started,Welcome.started,start_key.started,mouse_2.started,instruction.stopped,start_key.keys,mouse_2.x,mouse_2.y,mouse_2.leftButton,mouse_2.midButton,mouse_2.rightButton,mouse_2.time,trial.started,sentence.started,image_left.started,image_right.started,key_resp.started,mouse.started,trial.stopped,trials_loop.key_resp.keys,response,rt,response_method,correct_response,accuracy,trials_loop.mouse.x,trials_loop.mouse.y,trials_loop.mouse.leftButton,trials_loop.mouse.midButton,trials_loop.mouse.rightButton,trials_loop.mouse.time,thankyou.started,thankyou_text.started,end_key.started,participant,session,date,expName,psychopyVersion,frameRate,expStart,
,,,,,,,,,,,,,,,,,,0.07435241620987654,0.08588445815257728,0.08588445815257728,0.07438812498003244,41.23692783317529,None,[0.445],[-0.44333333333333336],[1],[0],[0],[41.16211058292538],,,,,,,,,,,,,,,,,,,,,,,300505,001,2026-04-25_15h51.50.308,experiment,2024.2.4,None,2026-04-25 15h52.03.406853 -0700,
93,ses,a,obj,o20.png,s7.png,look,critical,0,0,0,None,0,0,0,92,41.844600750133395,,,,,,,,,,,,,,41.79817391606048,41.844600750133395,41.844600750133395,41.844600750133395,41.844600750133395,0.5592534588649869,43.86897691618651,None,f,0,mouse,j,0,,,,,,,,,,300505,001,2026-04-25_15h51.50.308,experiment,2024.2.4,None,2026-04-25 15h52.03.406853 -0700,
87,poy,None,sub,o13.png,s17.png,look,critical,1,1,0,None,0,1,1,86,44.16713691619225,,,,,,,,,,,,,,44.160924250027165,44.16713691619225,44.16713691619225,44.16713691619225,44.16713691619225,0.2877099998295307,44.7686149161309,None,j,0,mouse,j,1,[-0.43833333333333335],[-0.013333333333333334],[1],[0],[0],[2.07021320797503],,,,300505,001,2026-04-25_15h51.50.308,experiment,2024.2.4,None,2026-04-25 15h52.03.406853 -0700,
38,boarse,a,obj,o7.png,s21.png,look,critical,2,2,0,None,0,2,2,37,45.064849333139136,,,,,,,,,,,,,,45.05979787511751,45.064849333139136,45.064849333139136,45.064849333139136,45.064849333139136,0.290543083101511,45.34099912503734,None,j,0,mouse,f,0,[0.38333333333333336],[0.0033333333333333335],[1],[0],[0],[0.6074459999799728],,,,300505,001,2026-04-25_15h51.50.308,experiment,2024.2.4,None,2026-04-25 15h52.03.406853 -0700,
59,kal,None,sub,o2.png,s19.png,look,critical,3,3,0,None,0,3,3,58,45.51026508305222,,,,,,,,,,,,,,45.50559291616082,45.51026508305222,45.51026508305222,45.51026508305222,45.51026508305222,0.163912917021662,45.773945208173245,None,j,0,mouse,f,0,[0.385],[0.0016666666666666668],[1],[0],[0],[0.2810098340269178],,,,300505,001,2026-04-25_15h51.50.308,experiment,2024.2.4,None,2026-04-25 15h52.03.406853 -0700,
99,ses,None,sub,o4.png,s3.png,look,critical,4,4,0,None,0,4,4,98,46.072964208200574,,,,,,,,,,,,,,46.066954458132386,46.072964208200574,46.072964208200574,46.072964208200574,46.072964208200574,0.292360374936834,46.15134654100984,None,j,0,mouse,f,0,[0.385],[0.0016666666666666668],[1],[0],[0],[0.2681707909796387],,,,300505,001,2026-04-25_15h51.50.308,experiment,2024.2.4,None,2026-04-25 15h52.03.406853 -0700,
20,flane,None,sub,o16.png,s12.png,that_is,filler,5,5,0,None,0,5,5,19,46.451080250088125,,,,,,,,,,,,,,46.44518875004724,46.451080250088125,46.451080250088125,46.451080250088125,46.451080250088125,0.2932513749692589,46.61856275005266,None,j,0,mouse,j,1,[0.385],[0.0016666666666666668],[1],[0],[0],[0.08421683311462402],,,,300505,001,2026-04-25_15h51.50.308,experiment,2024.2.4,None,2026-04-25 15h52.03.406853 -0700,
64,blick,None,sub,o3.png,s13.png,that_is,filler,6,6,0,None,0,6,6,63,46.88915079110302,,,,,,,,,,,,,,46.88390870811418,46.88915079110302,46.88915079110302,46.88915079110302,46.88915079110302,0.26467737508937716,46.91747316601686,None,j,0,mouse,f,0,[0.385],[0.0016666666666666668],[1],[0],[0],[0.17315520788542926],,,,300505,001,2026-04-25_15h51.50.308,experiment,2024.2.4,None,2026-04-25 15h52.03.406853 -0700,
32,smeck,None,sub,o15.png,s3.png,look,critical,7,7,0,None,0,7,7,31,47.214417833136395,,,,,,,,,,,,,,47.20920412521809,47.214417833136395,47.214417833136395,47.214417833136395,47.214417833136395,0.29117591702379286,52.86849270807579,None,f,0,mouse,f,1,[0.385],[0.0016666666666666668],[1],[0],[0],[0.03339954186230898],,,,300505,001,2026-04-25_15h51.50.308,experiment,2024.2.4,None,2026-04-25 15h52.03.406853 -0700,
36,blick,None,sub,o3.png,s10.png,look,critical,8,8,0,None,0,8,8,35,53.147384208161384,,,,,,,,,,,,,,53.141613125102594,53.147384208161384,53.147384208161384,53.147384208161384,53.147384208161384,0.272397292079404,53.635218541137874,None,j,0,mouse,j,1,[-0.24166666666666667],[0.12833333333333333],[1],[0],[0],[5.659084958024323],,,,300505,001,2026-04-25_15h51.50.308,experiment,2024.2.4,None,2026-04-25 15h52.03.406853 -0700,
96,tem,a,obj,o9.png,s6.png,look,critical,9,9,0,None,0,9,9,95,53.930892875185236,,,,,,,,,,,,,,53.92485512513667,53.930892875185236,53.930892875185236,53.930892875185236,53.930892875185236,0.288933000061661,53.97241425001994,None,j,0,mouse,j,1,[0.3016666666666667],[0.013333333333333334],[1],[0],[0],[0.4933948330581188],,,,300505,001,2026-04-25_15h51.50.308,experiment,2024.2.4,None,2026-04-25 15h52.03.406853 -0700,
58,vow,a,obj,o4.png,s10.png,there_is,filler,10,10,0,None,0,10,10,57,54.277715208008885,,,,,,,,,,,,,,54.27268016617745,54.277715208008885,54.277715208008885,54.277715208008885,54.277715208008885,0.2996500830631703,54.52497333311476,None,j,0,mouse,j,1,[0.3016666666666667],[0.013333333333333334],[1],[0],[0],[0.04738004086539149],,,,300505,001,2026-04-25_15h51.50.308,experiment,2024.2.4,None,2026-04-25 15h52.03.406853 -0700,
88,smeck,None,sub,o10.png,s11.png,there_is,filler,11,11,0,None,0,11,11,87,54.83180070808157,,,,,,,,,,,,,,54.826738875126466,54.83180070808157,54.83180070808157,54.83180070808157,54.83180070808157,0.30113424989394844,55.092101416084915,None,j,0,mouse,f,0,[0.3016666666666667],[0.013333333333333334],[1],[0],[0],[0.2521032919175923],,,,300505,001,2026-04-25_15h51.50.308,experiment,2024.2.4,None,2026-04-25 15h52.03.406853 -0700,
12,plyne,None,sub,o12.png,s12.png,look,critical,12,12,0,None,0,12,12,11,55.38789783301763,,,,,,,,,,,,,,55.37844508304261,55.38789783301763,55.38789783301763,55.38789783301763,55.38789783301763,0.2856622089166194,55.53513337508775,None,j,0,mouse,f,0,[0.3016666666666667],[0.013333333333333334],[1],[0],[0],[0.2651618751697242],,,,300505,001,2026-04-25_15h51.50.308,experiment,2024.2.4,None,2026-04-25 15h52.03.406853 -0700,
15,kal,a,obj,o13.png,s13.png,there_is,filler,13,13,0,None,0,13,13,14,55.81286925007589,,,,,,,,,,,,,,55.808305541053414,55.81286925007589,55.81286925007589,55.81286925007589,55.81286925007589,0.27249420899897814,56.007444875082,None,j,0,mouse,j,1,[0.3016666666666667],[0.013333333333333334],[1],[0],[0],[0.1565013329964131],,,,300505,001,2026-04-25_15h51.50.308,experiment,2024.2.4,None,2026-04-25 15h52.03.406853 -0700,
85,crolt,None,sub,o5.png,s20.png,that_is,filler,14,14,0,None,0,14,14,84,56.32517870818265,,,,,,,,,,,,,,56.319732500007376,56.32517870818265,56.32517870818265,56.32517870818265,56.32517870818265,0.31163316685706377,56.65263925003819,None,f,0,mouse,j,0,[0.3016666666666667],[0.013333333333333334],[1],[0],[0],[0.19896312500350177],,,,300505,001,2026-04-25_15h51.50.308,experiment,2024.2.4,None,2026-04-25 15h52.03.406853 -0700,
46,praith,None,sub,o4.png,s14.png,look,critical,15,15,0,None,0,15,15,45,56.94343908317387,,,,,,,,,,,,,,56.93832350010052,56.94343908317387,56.94343908317387,56.94343908317387,56.94343908317387,0.28509787493385375,57.068440083181486,None,f,0,mouse,j,0,[-0.485],[-0.058333333333333334],[1],[0],[0],[0.3327234589960426],,,,300505,001,2026-04-25_15h51.50.308,experiment,2024.2.4,None,2026-04-25 15h52.03.406853 -0700,
44,stutch,None,sub,o19.png,s5.png,there_is,filler,16,16,0,None,0,16,16,43,57.37113158311695,,,,,,,,,,,,,,57.36564112501219,57.37113158311695,57.37113158311695,57.37113158311695,57.37113158311695,0.29660445800982416,57.48518345807679,None,f,0,mouse,f,1,[-0.485],[-0.058333333333333334],[1],[0],[0],[0.12994366604834795],,,,300505,001,2026-04-25_15h51.50.308,experiment,2024.2.4,None,2026-04-25 15h52.03.406853 -0700,
67,trebe,None,sub,o8.png,s11.png,look,critical,17,17,0,None,0,17,17,66,57.7884279161226,,,,,,,,,,,,,,57.78351829107851,57.7884279161226,57.7884279161226,57.7884279161226,57.7884279161226,0.29776283307000995,57.93516445811838,None,f,0,mouse,j,0,[-0.485],[-0.058333333333333334],[1],[0],[0],[0.11935187503695488],,,,300505,001,2026-04-25_15h51.50.308,experiment,2024.2.4,None,2026-04-25 15h52.03.406853 -0700,
34,ses,a,obj,o11.png,s4.png,there_is,filler,18,18,0,None,0,18,18,33,58.08844450023025,,,,,,,,,,,,,,58.084503875114024,58.08844450023025,58.08844450023025,58.08844450023025,58.08844450023025,0.1487599171232432,58.37485191621818,None,f,0,mouse,f,1,[-0.485],[-0.058333333333333334],[1],[0],[0],[0.1514656669460237],,,,300505,001,2026-04-25_15h51.50.308,experiment,2024.2.4,None,2026-04-25 15h52.03.406853 -0700,
84,tib,a,obj,o3.png,s20.png,there_is,filler,19,19,0,None,0,19,19,83,58.66813691612333,,,,,,,,,,,,,,58.663487958023325,58.66813691612333,58.66813691612333,58.66813691612333,58.66813691612333,0.2879907919559628,58.83552370802499,None,f,0,mouse,f,1,[-0.48333333333333334],[-0.06],[1],[0],[0],[0.2901678329799324],,,,300505,001,2026-04-25_15h51.50.308,experiment,2024.2.4,None,2026-04-25 15h52.03.406853 -0700,
54,stutch,a,obj,o25.png,s24.png,there_is,filler,20,20,0,None,0,20,20,53,59.13087512506172,,,,,,,,,,,,,,59.12638858309947,59.13087512506172,59.13087512506172,59.13087512506172,59.13087512506172,0.290254499996081,59.268592291045934,None,f,0,mouse,f,1,[-0.48],[-0.06166666666666667],[1],[0],[0],[0.17184991692192852],,,,300505,001,2026-04-25_15h51.50.308,experiment,2024.2.4,None,2026-04-25 15h52.03.406853 -0700,
37,zeg,None,sub,o11.png,s11.png,look,critical,21,21,0,None,0,21,21,36,59.54371395800263,,,,,,,,,,,,,,59.53899445803836,59.54371395800263,59.54371395800263,59.54371395800263,59.54371395800263,0.2698392500169575,59.75955612515099,None,f,0,mouse,f,1,[-0.48],[-0.06166666666666667],[1],[0],[0],[0.14201899990439415],,,,300505,001,2026-04-25_15h51.50.308,experiment,2024.2.4,None,2026-04-25 15h52.03.406853 -0700,
42,rop,a,obj,o17.png,s3.png,look,critical,22,22,0,None,0,22,22,41,60.058180208085105,,,,,,,,,,,,,,60.05389187508263,60.058180208085105,60.058180208085105,60.058180208085105,60.058180208085105,0.29370991699397564,60.19061766611412,None,f,0,mouse,j,0,[-0.48],[-0.06166666666666667],[1],[0],[0],[0.2203726249281317],,,,300505,001,2026-04-25_15h51.50.308,experiment,2024.2.4,None,2026-04-25 15h52.03.406853 -0700,
72,wug,a,obj,o2.png,s4.png,look,critical,23,23,0,None,0,23,23,71,60.35594541602768,,,,,,,,,,,,,,60.351835208013654,60.35594541602768,60.35594541602768,60.35594541602768,60.35594541602768,0.1603989580180496,60.60704370820895,None,f,0,mouse,f,1,[-0.48],[-0.06166666666666667],[1],[0],[0],[0.136556041194126],,,,300505,001,2026-04-25_15h51.50.308,experiment,2024.2.4,None,2026-04-25 15h52.03.406853 -0700,
77,praith,a,obj,o2.png,s14.png,there_is,filler,24,24,0,None,0,24,24,76,60.8977820831351,,,,,,,,,,,,,,60.89311541616917,60.8977820831351,60.8977820831351,60.8977820831351,60.8977820831351,0.28542562504298985,60.99029633309692,None,f,0,mouse,j,0,[-0.47833333333333333],[-0.06166666666666667],[1],[0],[0],[0.2550253749359399],,,,300505,001,2026-04-25_15h51.50.308,experiment,2024.2.4,None,2026-04-25 15h52.03.406853 -0700,
81,plyne,None,sub,o20.png,s21.png,that_is,filler,25,25,0,None,0,25,25,80,61.28422350017354,,,,,,,,,,,,,,61.28015487501398,61.28422350017354,61.28422350017354,61.28422350017354,61.28422350017354,0.2892203340306878,61.44108995818533,None,f,0,mouse,f,1,[-0.47833333333333333],[-0.06166666666666667],[1],[0],[0],[0.09699549991637468],,,,300505,001,2026-04-25_15h51.50.308,experiment,2024.2.4,None,2026-04-25 15h52.03.406853 -0700,
25,smeck,a,obj,o18.png,s13.png,look,critical,26,26,0,None,0,26,26,24,61.7133984582033,,,,,,,,,,,,,,61.708656958071515,61.7133984582033,61.7133984582033,61.7133984582033,61.7133984582033,0.2669185420963913,61.8232426661998,None,f,0,mouse,f,1,[-0.47833333333333333],[-0.06166666666666667],[1],[0],[0],[0.160757957957685],,,,300505,001,2026-04-25_15h51.50.308,experiment,2024.2.4,None,2026-04-25 15h52.03.406853 -0700,
29,rop,None,sub,o10.png,s9.png,look,critical,27,27,0,None,0,27,27,28,62.1000212081708,,,,,,,,,,,,,,62.095451958011836,62.1000212081708,62.1000212081708,62.1000212081708,62.1000212081708,0.27156558306887746,62.624121291097254,None,j,0,mouse,j,1,[-0.47833333333333333],[-0.06166666666666667],[1],[0],[0],[0.11438716691918671],,,,300505,001,2026-04-25_15h51.50.308,experiment,2024.2.4,None,2026-04-25 15h52.03.406853 -0700,
48,kal,a,obj,o18.png,s10.png,look,critical,28,28,0,None,0,28,28,47,62.89528412511572,,,,,,,,,,,,,,62.89116237522103,62.89528412511572,62.89528412511572,62.89528412511572,62.89528412511572,0.2659108340740204,63.040924166096374,None,j,0,mouse,f,0,[0.36833333333333335],[0.0016666666666666668],[1],[0],[0],[0.5284761670045555],,,,300505,001,2026-04-25_15h51.50.308,experiment,2024.2.4,None,2026-04-25 15h52.03.406853 -0700,
47,kreet,a,obj,o12.png,s24.png,look,critical,29,29,0,None,0,29,29,46,63.3220341661945,,,,,,,,,,,,,,63.317207041196525,63.3220341661945,63.3220341661945,63.3220341661945,63.3220341661945,0.27567312493920326,63.32981745805591,None,j,0,mouse,f,0,[0.37166666666666665],[0.0],[1],[0],[0],[0.14959079213440418],,,,300505,001,2026-04-25_15h51.50.308,experiment,2024.2.4,None,2026-04-25 15h52.03.406853 -0700,
68,tem,None,sub,o14.png,s25.png,look,critical,30,30,0,None,0,30,30,67,63.50186491617933,,,,,,,,,,,,,,63.497465833090246,63.50186491617933,63.50186491617933,63.50186491617933,63.50186491617933,0.1670674157794565,63.66833920800127,None,j,0,mouse,f,0,[0.37166666666666665],[0.0],[1],[0],[0],[0.01242987485602498],,,,300505,001,2026-04-25_15h51.50.308,experiment,2024.2.4,None,2026-04-25 15h52.03.406853 -0700,
11,fusk,a,obj,o3.png,s18.png,that_is,filler,31,31,0,None,0,31,31,10,63.94013833301142,,,,,,,,,,,,,,63.936193333007395,63.94013833301142,63.94013833301142,63.94013833301142,63.94013833301142,0.2672607498243451,64.22415529121645,None,j,0,mouse,f,0,[0.37166666666666665],[0.0],[1],[0],[0],[0.170693791937083],,,,300505,001,2026-04-25_15h51.50.308,experiment,2024.2.4,None,2026-04-25 15h52.03.406853 -0700,
89,tem,None,sub,o12.png,s8.png,there_is,filler,32,32,0,None,0,32,32,88,64.50482604117133,,,,,,,,,,,,,,64.50079037505202,64.50482604117133,64.50482604117133,64.50482604117133,64.50482604117133,0.2758482920471579,64.80756141617894,None,j,0,mouse,f,0,[0.37166666666666665],[0.0],[1],[0],[0],[0.2877660000231117],,,,300505,001,2026-04-25_15h51.50.308,experiment,2024.2.4,None,2026-04-25 15h52.03.406853 -0700,
71,fusk,None,sub,o23.png,s23.png,look,critical,33,33,0,None,0,33,33,70,65.10708158300258,,,,,,,,,,,,,,65.10294837504625,65.10708158300258,65.10708158300258,65.10708158300258,65.10708158300258,0.29474616702646017,65.27468033321202,None,j,0,mouse,j,1,[0.37166666666666665],[0.0],[1],[0],[0],[0.30659204185940325],,,,300505,001,2026-04-25_15h51.50.308,experiment,2024.2.4,None,2026-04-25 15h52.03.406853 -0700,
21,blick,a,obj,o6.png,s9.png,look,critical,34,34,0,None,0,34,34,20,65.55481608305126,,,,,,,,,,,,,,65.54930583317764,65.55481608305126,65.55481608305126,65.55481608305126,65.55481608305126,0.2738620841410011,65.8351000000257,None,j,0,mouse,j,1,[0.37166666666666665],[0.0],[1],[0],[0],[0.17154483287595212],,,,300505,001,2026-04-25_15h51.50.308,experiment,2024.2.4,None,2026-04-25 15h52.03.406853 -0700,
14,wis,None,sub,o24.png,s12.png,look,critical,35,35,0,None,0,35,35,13,66.12515337509103,,,,,,,,,,,,,,66.12078545801342,66.12515337509103,66.12515337509103,66.12515337509103,66.12515337509103,0.28501133411191404,66.268515041098,None,j,0,mouse,f,0,[0.37166666666666665],[0.0],[1],[0],[0],[0.2856219580862671],,,,300505,001,2026-04-25_15h51.50.308,experiment,2024.2.4,None,2026-04-25 15h52.03.406853 -0700,
90,trebe,a,obj,o19.png,s6.png,look,critical,36,36,0,None,0,36,36,89,66.54965729103424,,,,,,,,,,,,,,66.54556508315727,66.54965729103424,66.54965729103424,66.54965729103424,66.54965729103424,0.2764952499419451,66.718677416211,None,j,0,mouse,f,0,[0.37166666666666665],[0.0],[1],[0],[0],[0.14755145786330104],,,,300505,001,2026-04-25_15h51.50.308,experiment,2024.2.4,None,2026-04-25 15h52.03.406853 -0700,
18,vow,None,sub,o12.png,s10.png,there_is,filler,37,37,0,None,0,37,37,17,66.99892475013621,,,,,,,,,,,,,,66.99474300001748,66.99892475013621,66.99892475013621,66.99892475013621,66.99892475013621,0.2754597910679877,67.12251954106614,None,j,0,mouse,j,1,[0.37166666666666665],[0.0],[1],[0],[0],[0.17294520791620016],,,,300505,001,2026-04-25_15h51.50.308,experiment,2024.2.4,None,2026-04-25 15h52.03.406853 -0700,
22,wis,None,sub,o11.png,s9.png,there_is,filler,38,38,0,None,0,38,38,21,67.37194100022316,,,,,,,,,,,,,,67.36765825003386,67.37194100022316,67.37194100022316,67.37194100022316,67.37194100022316,0.24450479191727936,67.63953358307481,None,j,0,mouse,f,0,[0.37166666666666665],[0.0],[1],[0],[0],[0.12760358303785324],,,,300505,001,2026-04-25_15h51.50.308,experiment,2024.2.4,None,2026-04-25 15h52.03.406853 -0700,
24,vow,a,obj,o24.png,s22.png,look,critical,39,39,0,None,0,39,39,23,67.91245891619474,,,,,,,,,,,,,,67.90793591621332,67.91245891619474,67.91245891619474,67.91245891619474,67.91245891619474,0.2677472089417279,68.05639912514016,None,j,0,mouse,j,1,[0.37166666666666665],[0.0],[1],[0],[0],[0.2716932911425829],,,,300505,001,2026-04-25_15h51.50.308,experiment,2024.2.4,None,2026-04-25 15h52.03.406853 -0700,
82,tarb,a,obj,o22.png,s17.png,that_is,filler,40,40,0,None,0,40,40,81,68.33986925007775,,,,,,,,,,,,,,68.33551316615194,68.33986925007775,68.33986925007775,68.33986925007775,68.33986925007775,0.27847658400423825,68.50176770822145,None,j,0,mouse,f,0,[0.37166666666666665],[0.0],[1],[0],[0],[0.1482843749690801],,,,300505,001,2026-04-25_15h51.50.308,experiment,2024.2.4,None,2026-04-25 15h52.03.406853 -0700,
73,blick,a,obj,o20.png,s22.png,that_is,filler,41,41,0,None,0,41,41,72,68.77782450011,,,,,,,,,,,,,,68.77308870805427,68.77782450011,68.77782450011,68.77782450011,68.77782450011,0.2707161249127239,68.79045687522739,None,j,0,mouse,j,1,[0.37166666666666665],[0.0],[1],[0],[0],[0.1660845000296831],,,,300505,001,2026-04-25_15h51.50.308,experiment,2024.2.4,None,2026-04-25 15h52.03.406853 -0700,
92,phrup,None,sub,o7.png,s7.png,look,critical,42,42,0,None,0,42,42,91,69.0750772501342,,,,,,,,,,,,,,69.07099591614679,69.0750772501342,69.0750772501342,69.0750772501342,69.0750772501342,0.27995291701518,69.46855129115283,None,j,0,mouse,j,1,[0.37166666666666665],[0.0],[1],[0],[0],[0.01718629105016589],,,,300505,001,2026-04-25_15h51.50.308,experiment,2024.2.4,None,2026-04-25 15h52.03.406853 -0700,
9,crolt,None,sub,o12.png,s22.png,look,critical,43,43,0,None,0,43,43,8,69.73953800019808,,,,,,,,,,,,,,69.73543633311056,69.73953800019808,69.73953800019808,69.73953800019808,69.73953800019808,0.2663241249974817,70.41906191618182,None,f,0,mouse,f,1,[0.37166666666666665],[0.0],[1],[0],[0],[0.3973871669732034],,,,300505,001,2026-04-25_15h51.50.308,experiment,2024.2.4,None,2026-04-25 15h52.03.406853 -0700,
43,poy,a,obj,o3.png,s21.png,look,critical,44,44,0,None,0,44,44,42,70.69311641622335,,,,,,,,,,,,,,70.68886041617952,70.69311641622335,70.69311641622335,70.69311641622335,70.69311641622335,0.2691943340469152,70.83546162513085,None,f,0,mouse,f,1,[-0.28],[-0.021666666666666667],[1],[0],[0],[0.6834569999482483],,,,300505,001,2026-04-25_15h51.50.308,experiment,2024.2.4,None,2026-04-25 15h52.03.406853 -0700,
13,plyne,a,obj,o16.png,s14.png,look,critical,45,45,0,None,0,45,45,12,71.13529595802538,,,,,,,,,,,,,,71.13062704121694,71.13529595802538,71.13529595802538,71.13529595802538,71.13529595802538,0.2943935829680413,71.31872475007549,None,f,0,mouse,j,0,[-0.28],[-0.021666666666666667],[1],[0],[0],[0.14642416685819626],,,,300505,001,2026-04-25_15h51.50.308,experiment,2024.2.4,None,2026-04-25 15h52.03.406853 -0700,
28,wug,a,obj,o11.png,s15.png,there_is,filler,46,46,0,None,0,46,46,27,71.5617517910432,,,,,,,,,,,,,,71.55723912501708,71.5617517910432,71.5617517910432,71.5617517910432,71.5617517910432,0.23784416704438627,71.9018718751613,None,f,0,mouse,f,1,[-0.28],[-0.021666666666666667],[1],[0],[0],[0.18791970890015364],,,,300505,001,2026-04-25_15h51.50.308,experiment,2024.2.4,None,2026-04-25 15h52.03.406853 -0700,
75,zeg,a,obj,o10.png,s19.png,look,critical,47,47,0,None,0,47,47,74,72.07443929114379,,,,,,,,,,,,,,72.0700116250664,72.07443929114379,72.07443929114379,72.07443929114379,72.07443929114379,0.16757508320733905,72.36819395818748,None,f,0,mouse,j,0,[-0.28],[-0.021666666666666667],[1],[0],[0],[0.3444532922003418],,,,300505,001,2026-04-25_15h51.50.308,experiment,2024.2.4,None,2026-04-25 15h52.03.406853 -0700,
10,tharge,a,obj,o1.png,s2.png,look,critical,48,48,0,None,0,48,48,9,72.6567053750623,,,,,,,,,,,,,,72.65268816612661,72.6567053750623,72.6567053750623,72.6567053750623,72.6567053750623,0.2838647081516683,72.67468541604467,None,f,0,mouse,f,1,[-0.2816666666666667],[-0.021666666666666667],[1],[0],[0],[0.29799937503412366],,,,300505,001,2026-04-25_15h51.50.308,experiment,2024.2.4,None,2026-04-25 15h52.03.406853 -0700,
7,praith,a,obj,o17.png,s10.png,look,critical,49,49,0,None,0,49,49,6,72.96708512515761,,,,,,,,,,,,,,72.96271308301948,72.96708512515761,72.96708512515761,72.96708512515761,72.96708512515761,0.2874847080092877,73.00657829106785,None,f,0,mouse,f,1,[-0.2816666666666667],[-0.021666666666666667],[1],[0],[0],[0.02183704194612801],,,,300505,001,2026-04-25_15h51.50.308,experiment,2024.2.4,None,2026-04-25 15h52.03.406853 -0700,
98,zeg,None,sub,o10.png,s15.png,there_is,filler,50,50,0,None,0,50,50,97,73.27350754104555,,,,,,,,,,,,,,73.26891658315435,73.27350754104555,73.27350754104555,73.27350754104555,73.27350754104555,0.26175483292900026,73.55745100020431,None,f,0,mouse,j,0,[-0.2816666666666667],[-0.021666666666666667],[1],[0],[0],[0.04368787491694093],,,,300505,001,2026-04-25_15h51.50.308,experiment,2024.2.4,None,2026-04-25 15h52.03.406853 -0700,
55,tarb,None,sub,o2.png,s23.png,look,critical,51,51,0,None,0,51,51,54,73.83839000016451,,,,,,,,,,,,,,73.83414916601032,73.83839000016451,73.83839000016451,73.83839000016451,73.83839000016451,0.276043500052765,74.05202375003137,None,f,0,mouse,f,1,[-0.2816666666666667],[-0.021666666666666667],[1],[0],[0],[0.28831791691482067],,,,300505,001,2026-04-25_15h51.50.308,experiment,2024.2.4,None,2026-04-25 15h52.03.406853 -0700,
27,fusk,a,obj,o21.png,s25.png,look,critical,52,52,0,None,0,52,52,26,74.2255600001663,,,,,,,,,,,,,,74.22125966614112,74.2255600001663,74.2255600001663,74.2255600001663,74.2255600001663,0.1686408338136971,74.48529304121621,None,f,0,mouse,j,0,[-0.2816666666666667],[-0.021666666666666667],[1],[0],[0],[0.21768270782195032],,,,300505,001,2026-04-25_15h51.50.308,experiment,2024.2.4,None,2026-04-25 15h52.03.406853 -0700,
51,kal,None,sub,o12.png,s4.png,there_is,filler,53,53,0,None,0,53,53,50,74.66191604104824,,,,,,,,,,,,,,74.65788675006479,74.66191604104824,74.66191604104824,74.66191604104824,74.66191604104824,0.17181683308444917,74.94115525018424,None,f,0,mouse,j,0,[-0.2816666666666667],[-0.021666666666666667],[1],[0],[0],[0.2637708750553429],,,,300505,001,2026-04-25_15h51.50.308,experiment,2024.2.4,None,2026-04-25 15h52.03.406853 -0700,
79,phrup,a,obj,o11.png,s17.png,look,critical,54,54,0,None,0,54,54,78,75.2074667501729,,,,,,,,,,,,,,75.2033794161398,75.2074667501729,75.2074667501729,75.2074667501729,75.2074667501729,0.26160404086112976,75.86862395820208,None,f,0,mouse,f,1,[-0.2816666666666667],[-0.021666666666666667],[1],[0],[0],[0.2830944580491632],,,,300505,001,2026-04-25_15h51.50.308,experiment,2024.2.4,None,2026-04-25 15h52.03.406853 -0700,
91,poy,a,obj,o8.png,s5.png,there_is,filler,55,55,0,None,0,55,55,90,76.19068379118107,,,,,,,,,,,,,,76.18590704118833,76.19068379118107,76.19068379118107,76.19068379118107,76.19068379118107,0.31669245893135667,76.24494108301587,None,f,0,mouse,j,0,[-0.2816666666666667],[-0.021666666666666667],[1],[0],[0],[0.6650742080528289],,,,300505,001,2026-04-25_15h51.50.308,experiment,2024.2.4,None,2026-04-25 15h52.03.406853 -0700,
8,boarse,None,sub,o9.png,s17.png,that_is,filler,56,56,0,None,0,56,56,7,76.52543575013988,,,,,,,,,,,,,,76.52049295813777,76.52543575013988,76.52543575013988,76.52543575013988,76.52543575013988,0.2749057081528008,76.90697562508285,None,f,0,mouse,j,0,[-0.2816666666666667],[-0.021666666666666667],[1],[0],[0],[0.05883800005540252],,,,300505,001,2026-04-25_15h51.50.308,experiment,2024.2.4,None,2026-04-25 15h52.03.406853 -0700,
4,tarb,a,obj,o20.png,s24.png,look,critical,57,57,0,None,0,57,57,3,77.19151570810936,,,,,,,,,,,,,,77.18671645806171,77.19151570810936,77.19151570810936,77.19151570810936,77.19151570810936,0.2791562909260392,77.46876683318987,None,f,0,mouse,j,0,[-0.2816666666666667],[-0.021666666666666667],[1],[0],[0],[0.38630300015211105],,,,300505,001,2026-04-25_15h51.50.308,experiment,2024.2.4,None,2026-04-25 15h52.03.406853 -0700,
57,ses,None,sub,o9.png,s25.png,there_is,filler,58,58,0,None,0,58,58,56,77.63625666615553,,,,,,,,,,,,,,77.63187450007536,77.63625666615553,77.63625666615553,77.63625666615553,77.63625666615553,0.162538459058851,77.95725000021048,None,f,0,mouse,f,1,[-0.2816666666666667],[-0.021666666666666667],[1],[0],[0],[0.2818717921618372],,,,300505,001,2026-04-25_15h51.50.308,experiment,2024.2.4,None,2026-04-25 15h52.03.406853 -0700,
16,rop,a,obj,o9.png,s19.png,there_is,filler,59,59,0,None,0,59,59,15,78.11854466609657,,,,,,,,,,,,,,78.1143032500986,78.11854466609657,78.11854466609657,78.11854466609657,78.11854466609657,0.1563957917969674,78.48564870818518,None,f,0,mouse,j,0,[-0.2816666666666667],[-0.021666666666666667],[1],[0],[0],[0.3251863750629127],,,,300505,001,2026-04-25_15h51.50.308,experiment,2024.2.4,None,2026-04-25 15h52.03.406853 -0700,
17,phrup,None,sub,o21.png,s19.png,that_is,filler,60,60,0,None,0,60,60,16,78.64888020814396,,,,,,,,,,,,,,78.64481441606767,78.64888020814396,78.64888020814396,78.64888020814396,78.64888020814396,0.15858445805497468,79.15185220818967,None,f,0,mouse,f,1,[-0.2816666666666667],[-0.021666666666666667],[1],[0],[0],[0.37117537506856024],,,,300505,001,2026-04-25_15h51.50.308,experiment,2024.2.4,None,2026-04-25 15h52.03.406853 -0700,
6,trebe,a,obj,o5.png,s22.png,that_is,filler,61,61,0,None,0,61,61,5,79.4543221660424,,,,,,,,,,,,,,79.44953758316115,79.4543221660424,79.4543221660424,79.4543221660424,79.4543221660424,0.29713608394376934,79.55662791617215,None,f,0,mouse,f,1,[-0.2816666666666667],[-0.021666666666666667],[1],[0],[0],[0.5068676669616252],,,,300505,001,2026-04-25_15h51.50.308,experiment,2024.2.4,None,2026-04-25 15h52.03.406853 -0700,
52,crolt,a,obj,o2.png,s9.png,look,critical,62,62,0,None,0,62,62,51,79.82278920803219,,,,,,,,,,,,,,79.81871375022456,79.82278920803219,79.82278920803219,79.82278920803219,79.82278920803219,0.26149625005200505,80.10192958312109,None,f,0,mouse,j,0,[-0.2816666666666667],[-0.021666666666666667],[1],[0],[0],[0.10691562481224537],,,,300505,001,2026-04-25_15h51.50.308,experiment,2024.2.4,None,2026-04-25 15h52.03.406853 -0700,
86,kreet,None,sub,o16.png,s5.png,look,critical,63,63,0,None,0,63,63,85,80.42277216608636,,,,,,,,,,,,,,80.41868037520908,80.42277216608636,80.42277216608636,80.42277216608636,80.42277216608636,0.3161824168637395,80.76907283300534,None,f,0,mouse,f,1,[-0.2816666666666667],[-0.021666666666666667],[1],[0],[0],[0.2830455838702619],,,,300505,001,2026-04-25_15h51.50.308,experiment,2024.2.4,None,2026-04-25 15h52.03.406853 -0700,
1,tib,None,sub,o18.png,s20.png,there_is,filler,64,64,0,None,0,64,64,0,81.05464562517591,,,,,,,,,,,,,,81.05050925002433,81.05464562517591,81.05464562517591,81.05464562517591,81.05464562517591,0.2808510409668088,82.13557100016624,None,j,0,mouse,j,1,[-0.2816666666666667],[-0.021666666666666667],[1],[0],[0],[0.35022041690535843],,,,300505,001,2026-04-25_15h51.50.308,experiment,2024.2.4,None,2026-04-25 15h52.03.406853 -0700,
41,tib,a,obj,o12.png,s3.png,look,critical,65,65,0,None,0,65,65,40,82.42293270817026,,,,,,,,,,,,,,82.41864841617644,82.42293270817026,82.42293270817026,82.42293270817026,82.42293270817026,0.2824790421873331,82.95685358322226,None,f,0,mouse,f,1,[0.415],[0.0033333333333333335],[1],[0],[0],[1.0848684159573168],,,,300505,001,2026-04-25_15h51.50.308,experiment,2024.2.4,None,2026-04-25 15h52.03.406853 -0700,
76,kreet,a,obj,o23.png,s19.png,that_is,filler,66,66,0,None,0,66,66,75,83.1323520001024,,,,,,,,,,,,,,83.1277896661777,83.1323520001024,83.1323520001024,83.1323520001024,83.1323520001024,0.17030804208479822,84.30784029117785,None,j,0,mouse,j,1,[-0.3383333333333333],[-0.03333333333333333],[1],[0],[0],[0.538025125162676],,,,300505,001,2026-04-25_15h51.50.308,experiment,2024.2.4,None,2026-04-25 15h52.03.406853 -0700,
61,clet,None,sub,o25.png,s7.png,that_is,filler,67,67,0,None,0,67,67,60,84.61137037514709,,,,,,,,,,,,,,84.60661537502892,84.61137037514709,84.61137037514709,84.61137037514709,84.61137037514709,0.29812591685913503,85.95200333301909,None,j,0,mouse,f,0,[0.37666666666666665],[-0.021666666666666667],[1],[0],[0],[1.1798554169945419],,,,300505,001,2026-04-25_15h51.50.308,experiment,2024.2.4,None,2026-04-25 15h52.03.406853 -0700,
49,tharge,None,sub,o20.png,s23.png,that_is,filler,68,68,0,None,0,68,68,48,86.24858141620643,,,,,,,,,,,,,,86.2446627500467,86.24858141620643,86.24858141620643,86.24858141620643,86.24858141620643,0.291876208037138,86.91881891619414,None,j,0,mouse,f,0,[0.38],[-0.016666666666666666],[1],[0],[0],[1.3451499580405653],,,,300505,001,2026-04-25_15h51.50.308,experiment,2024.2.4,None,2026-04-25 15h52.03.406853 -0700,
74,wis,a,obj,o19.png,s25.png,there_is,filler,69,69,0,None,0,69,69,73,87.07929925015196,,,,,,,,,,,,,,87.07499179104343,87.07929925015196,87.07929925015196,87.07929925015196,87.07929925015196,0.1555664581246674,87.42333475011401,None,j,0,mouse,j,1,[0.38],[-0.016666666666666666],[1],[0],[0],[0.6739812500309199],,,,300505,001,2026-04-25_15h51.50.308,experiment,2024.2.4,None,2026-04-25 15h52.03.406853 -0700,
63,tem,a,obj,o11.png,s9.png,there_is,filler,70,70,0,None,0,70,70,62,87.68220687517896,,,,,,,,,,,,,,87.67779929121025,87.68220687517896,87.68220687517896,87.68220687517896,87.68220687517896,0.2538175000809133,88.2083112502005,None,j,0,mouse,j,1,[0.38],[-0.016666666666666666],[1],[0],[0],[0.3481432921253145],,,,300505,001,2026-04-25_15h51.50.308,experiment,2024.2.4,None,2026-04-25 15h52.03.406853 -0700,
5,vow,None,sub,o3.png,s1.png,look,critical,71,71,0,None,0,71,71,4,88.47667587501928,,,,,,,,,,,,,,88.47197829117067,88.47667587501928,88.47667587501928,88.47667587501928,88.47667587501928,0.26301358290947974,90.30188437504694,None,f,0,mouse,f,1,[0.38],[-0.016666666666666666],[1],[0],[0],[0.5303258749190718],,,,300505,001,2026-04-25_15h51.50.308,experiment,2024.2.4,None,2026-04-25 15h52.03.406853 -0700,
83,kreet,None,sub,o15.png,s22.png,that_is,filler,72,72,0,None,0,72,72,82,90.58731254120357,,,,,,,,,,,,,,90.58190887514502,90.58731254120357,90.58731254120357,90.58731254120357,90.58731254120357,0.2794550000689924,91.50231941603124,None,j,0,mouse,f,0,[-0.435],[0.006666666666666667],[1],[0],[0],[1.8297352499794215],,,,300505,001,2026-04-25_15h51.50.308,experiment,2024.2.4,None,2026-04-25 15h52.03.406853 -0700,
31,phrup,a,obj,o10.png,s19.png,that_is,filler,73,73,0,None,0,73,73,30,91.67550158314407,,,,,,,,,,,,,,91.67137037520297,91.67550158314407,91.67550158314407,91.67550158314407,91.67550158314407,0.1684317090548575,92.34027591603808,None,f,0,mouse,j,0,[0.34833333333333333],[0.0],[1],[0],[0],[0.920219040941447],,,,300505,001,2026-04-25_15h51.50.308,experiment,2024.2.4,None,2026-04-25 15h52.03.406853 -0700,
39,smeck,a,obj,o8.png,s6.png,there_is,filler,74,74,0,None,0,74,74,38,92.64304950018413,,,,,,,,,,,,,,92.63834570813924,92.64304950018413,92.64304950018413,92.64304950018413,92.64304950018413,0.29741858295165,92.93475979100913,None,j,0,mouse,j,1,[-0.47333333333333333],[-0.023333333333333334],[1],[0],[0],[0.6687170839868486],,,,300505,001,2026-04-25_15h51.50.308,experiment,2024.2.4,None,2026-04-25 15h52.03.406853 -0700,
23,tharge,None,sub,o23.png,s1.png,look,critical,75,75,0,None,0,75,75,22,93.22209104103968,,,,,,,,,,,,,,93.21747604105622,93.22209104103968,93.22209104103968,93.22209104103968,93.22209104103968,0.2820447499398142,93.62443170812912,None,f,0,mouse,f,1,[0.305],[0.013333333333333334],[1],[0],[0],[0.29623425006866455],,,,300505,001,2026-04-25_15h51.50.308,experiment,2024.2.4,None,2026-04-25 15h52.03.406853 -0700,
69,boarse,None,sub,o11.png,s17.png,look,critical,76,76,0,None,0,76,76,68,93.88903216621839,,,,,,,,,,,,,,93.88387216604315,93.88903216621839,93.88903216621839,93.88903216621839,93.88903216621839,0.25881779193878174,94.09105287515558,None,j,0,mouse,f,0,[-0.365],[-0.035],[1],[0],[0],[0.4067782089114189],,,,300505,001,2026-04-25_15h51.50.308,experiment,2024.2.4,None,2026-04-25 15h52.03.406853 -0700,
95,tharge,a,obj,o4.png,s23.png,that_is,filler,77,77,0,None,0,77,77,94,94.3800857081078,,,,,,,,,,,,,,94.37531625013798,94.3800857081078,94.3800857081078,94.3800857081078,94.3800857081078,0.28362199990078807,95.23552200011909,None,j,0,mouse,j,1,[0.45166666666666666],[-0.035],[1],[0],[0],[0.20698524988256395],,,,300505,001,2026-04-25_15h51.50.308,experiment,2024.2.4,None,2026-04-25 15h52.03.406853 -0700,
56,fusk,None,sub,o18.png,s11.png,that_is,filler,78,78,0,None,0,78,78,55,95.52239604108036,,,,,,,,,,,,,,95.51815975015052,95.52239604108036,95.52239604108036,95.52239604108036,95.52239604108036,0.2820348748937249,95.62489508301951,None,j,0,mouse,f,0,[0.45666666666666667],[0.02666666666666667],[1],[0],[0],[0.8600254580378532],,,,300505,001,2026-04-25_15h51.50.308,experiment,2024.2.4,None,2026-04-25 15h52.03.406853 -0700,
97,flane,a,obj,o12.png,s12.png,look,critical,79,79,0,None,0,79,79,96,95.91568854101934,,,,,,,,,,,,,,95.91056941612624,95.91568854101934,95.91568854101934,95.91568854101934,95.91568854101934,0.2850635419599712,96.52478341618553,None,j,0,mouse,f,0,[0.45666666666666667],[0.02666666666666667],[1],[0],[0],[0.106563082896173],,,,300505,001,2026-04-25_15h51.50.308,experiment,2024.2.4,None,2026-04-25 15h52.03.406853 -0700,
45,stutch,None,sub,o4.png,s25.png,look,critical,80,80,0,None,0,80,80,44,96.69463958311826,,,,,,,,,,,,,,96.69028291618451,96.69463958311826,96.69463958311826,96.69463958311826,96.69463958311826,0.1648262080270797,96.91831875010394,None,j,0,mouse,j,1,[0.49833333333333335],[-0.04833333333333333],[1],[0],[0],[0.6140156660694629],,,,300505,001,2026-04-25_15h51.50.308,experiment,2024.2.4,None,2026-04-25 15h52.03.406853 -0700,
3,wis,a,obj,o9.png,s12.png,look,critical,81,81,0,None,0,81,81,2,97.21489637508057,,,,,,,,,,,,,,97.20982250012457,97.21489637508057,97.21489637508057,97.21489637508057,97.21489637508057,0.29090641695074737,97.26809987518936,None,j,0,mouse,j,1,[0.465],[-0.045],[1],[0],[0],[0.22785829100757837],,,,300505,001,2026-04-25_15h51.50.308,experiment,2024.2.4,None,2026-04-25 15h52.03.406853 -0700,
33,rop,None,sub,o12.png,s13.png,there_is,filler,82,82,0,None,0,82,82,32,97.55131745804101,,,,,,,,,,,,,,97.54641041602008,97.55131745804101,97.55131745804101,97.55131745804101,97.55131745804101,0.2777265841141343,97.80753750004806,None,j,0,mouse,j,1,[0.465],[-0.045],[1],[0],[0],[0.05810374999418855],,,,300505,001,2026-04-25_15h51.50.308,experiment,2024.2.4,None,2026-04-25 15h52.03.406853 -0700,
2,stutch,a,obj,o7.png,s20.png,look,critical,83,83,0,None,0,83,83,1,98.11143625015393,,,,,,,,,,,,,,98.10718208318576,98.11143625015393,98.11143625015393,98.11143625015393,98.11143625015393,0.29902604199014604,98.15949766617268,None,j,0,mouse,j,1,[0.465],[-0.045],[1],[0],[0],[0.2609456251375377],,,,300505,001,2026-04-25_15h51.50.308,experiment,2024.2.4,None,2026-04-25 15h52.03.406853 -0700,
94,wug,None,sub,o1.png,s10.png,look,critical,84,84,0,None,0,84,84,93,98.42143500014208,,,,,,,,,,,,,,98.41624800022691,98.42143500014208,98.42143500014208,98.42143500014208,98.42143500014208,0.25618379190564156,98.60191591619514,None,j,0,mouse,j,1,[0.465],[-0.045],[1],[0],[0],[0.05213883309625089],,,,300505,001,2026-04-25_15h51.50.308,experiment,2024.2.4,None,2026-04-25 15h52.03.406853 -0700,
19,clet,a,obj,o15.png,s16.png,that_is,filler,85,85,0,None,0,85,85,18,98.89575312519446,,,,,,,,,,,,,,98.89100791607052,98.89575312519446,98.89575312519446,98.89575312519446,98.89575312519446,0.28852795786224306,99.00678308308125,None,j,0,mouse,j,1,[0.4666666666666667],[-0.04833333333333333],[1],[0],[0],[0.18548304098658264],,,,300505,001,2026-04-25_15h51.50.308,experiment,2024.2.4,None,2026-04-25 15h52.03.406853 -0700,
35,clet,None,sub,o21.png,s4.png,look,critical,86,86,0,None,0,86,86,34,99.18035866622813,,,,,,,,,,,,,,99.17612883308902,99.18035866622813,99.18035866622813,99.18035866622813,99.18035866622813,0.16869887500070035,99.4352290830575,None,j,0,mouse,j,1,[0.465],[-0.06166666666666667],[1],[0],[0],[0.11555604217574],,,,300505,001,2026-04-25_15h51.50.308,experiment,2024.2.4,None,2026-04-25 15h52.03.406853 -0700,
80,tib,None,sub,o4.png,s19.png,look,critical,87,87,0,None,0,87,87,79,99.59606858319603,,,,,,,,,,,,,,99.59209333313629,99.59606858319603,99.59606858319603,99.59606858319603,99.59606858319603,0.1561392501462251,99.8687008752022,None,j,0,mouse,j,1,[0.47333333333333333],[-0.06],[1],[0],[0],[0.2588694170117378],,,,300505,001,2026-04-25_15h51.50.308,experiment,2024.2.4,None,2026-04-25 15h52.03.406853 -0700,
60,tarb,None,sub,o12.png,s13.png,that_is,filler,88,88,0,None,0,88,88,59,100.15808320813812,,,,,,,,,,,,,,100.15363341616467,100.15808320813812,100.15808320813812,100.15808320813812,100.15808320813812,0.28435716684907675,100.57370116608217,None,j,0,mouse,f,0,[0.45166666666666666],[-0.05],[1],[0],[0],[0.276433999883011],,,,300505,001,2026-04-25_15h51.50.308,experiment,2024.2.4,None,2026-04-25 15h52.03.406853 -0700,
65,poy,None,sub,o21.png,s21.png,there_is,filler,89,89,0,None,0,89,89,64,100.8648800412193,,,,,,,,,,,,,,100.86048950022087,100.8648800412193,100.8648800412193,100.8648800412193,100.8648800412193,0.2861380830872804,101.1186994581949,None,j,0,mouse,j,1,[0.28],[-0.06333333333333334],[1],[0],[0],[0.41988866683095694],,,,300505,001,2026-04-25_15h51.50.308,experiment,2024.2.4,None,2026-04-25 15h52.03.406853 -0700,
78,plyne,a,obj,o5.png,s25.png,that_is,filler,90,90,0,None,0,90,90,77,101.31013254122809,,,,,,,,,,,,,,101.30607404117472,101.31013254122809,101.31013254122809,101.31013254122809,101.31013254122809,0.18667016713880002,101.5406767912209,None,j,0,mouse,f,0,[0.285],[-0.04833333333333333],[1],[0],[0],[0.25803250004537404],,,,300505,001,2026-04-25_15h51.50.308,experiment,2024.2.4,None,2026-04-25 15h52.03.406853 -0700,
50,praith,None,sub,o11.png,s10.png,there_is,filler,91,91,0,None,0,91,91,49,101.80655000009574,,,,,,,,,,,,,,101.80209400015883,101.80655000009574,101.80655000009574,101.80655000009574,101.80655000009574,0.26078200014308095,102.25743500003591,None,j,0,mouse,f,0,[0.285],[-0.04833333333333333],[1],[0],[0],[0.23440341581590474],,,,300505,001,2026-04-25_15h51.50.308,experiment,2024.2.4,None,2026-04-25 15h52.03.406853 -0700,
70,trebe,None,sub,o18.png,s5.png,that_is,filler,92,92,0,None,0,92,92,69,102.56232241610996,,,,,,,,,,,,,,102.55809175013565,102.56232241610996,102.56232241610996,102.56232241610996,102.56232241610996,0.30001841695047915,102.7573322081007,None,j,0,mouse,f,0,[0.285],[-0.04833333333333333],[1],[0],[0],[0.45515749999321997],,,,300505,001,2026-04-25_15h51.50.308,experiment,2024.2.4,None,2026-04-25 15h52.03.406853 -0700,
30,zeg,a,obj,o16.png,s12.png,there_is,filler,93,93,0,None,0,93,93,29,103.05740416608751,,,,,,,,,,,,,,103.05300466599874,103.05740416608751,103.05740416608751,103.05740416608751,103.05740416608751,0.2950362500268966,103.23592020804062,None,j,0,mouse,f,0,[0.285],[-0.04833333333333333],[1],[0],[0],[0.19905337505042553],,,,300505,001,2026-04-25_15h51.50.308,experiment,2024.2.4,None,2026-04-25 15h52.03.406853 -0700,
66,clet,a,obj,o1.png,s9.png,look,critical,94,94,0,None,0,94,94,65,103.48795387521386,,,,,,,,,,,,,,103.4821140000131,103.48795387521386,103.48795387521386,103.48795387521386,103.48795387521386,0.2455939168576151,103.63514770800248,None,j,0,mouse,f,0,[0.285],[-0.04833333333333333],[1],[0],[0],[0.1827299171127379],,,,300505,001,2026-04-25_15h51.50.308,experiment,2024.2.4,None,2026-04-25 15h52.03.406853 -0700,
53,flane,a,obj,o4.png,s23.png,that_is,filler,95,95,0,None,0,95,95,52,103.92138408310711,,,,,,,,,,,,,,103.91640204121359,103.92138408310711,103.92138408310711,103.92138408310711,103.92138408310711,0.2806147919036448,104.07421837514266,None,j,0,mouse,j,1,[0.285],[-0.04833333333333333],[1],[0],[0],[0.15285566705279052],,,,300505,001,2026-04-25_15h51.50.308,experiment,2024.2.4,None,2026-04-25 15h52.03.406853 -0700,
100,crolt,a,obj,o14.png,s25.png,that_is,filler,96,96,0,None,0,96,96,99,104.24329637503251,,,,,,,,,,,,,,104.23955345805734,104.24329637503251,104.24329637503251,104.24329637503251,104.24329637503251,0.1647214579861611,104.48511933302507,None,j,0,mouse,f,0,[0.285],[-0.04833333333333333],[1],[0],[0],[0.15764233306981623],,,,300505,001,2026-04-25_15h51.50.308,experiment,2024.2.4,None,2026-04-25 15h52.03.406853 -0700,
26,boarse,a,obj,o20.png,s8.png,that_is,filler,97,97,0,None,0,97,97,25,104.77341304114088,,,,,,,,,,,,,,104.7693457081914,104.77341304114088,104.77341304114088,104.77341304114088,104.77341304114088,0.2836719579063356,104.90168420807458,None,j,0,mouse,j,1,[0.285],[-0.04833333333333333],[1],[0],[0],[0.2454050830565393],,,,300505,001,2026-04-25_15h51.50.308,experiment,2024.2.4,None,2026-04-25 15h52.03.406853 -0700,
40,wug,None,sub,o10.png,s24.png,there_is,filler,98,98,0,None,0,98,98,39,105.1893796660006,,,,,,,,,,,,,,105.1848907081876,105.1893796660006,105.1893796660006,105.1893796660006,105.1893796660006,0.28265150007791817,105.35194491618313,None,j,0,mouse,j,1,[0.285],[-0.04833333333333333],[1],[0],[0],[0.13216925016604364],,,,300505,001,2026-04-25_15h51.50.308,experiment,2024.2.4,None,2026-04-25 15h52.03.406853 -0700,
62,flane,None,sub,o22.png,s24.png,look,critical,99,99,0,None,0,99,99,61,105.63777975016274,,,,,,,,,,,,,,105.63320220820606,105.63777975016274,105.63777975016274,105.63777975016274,105.63777975016274,0.28041733312420547,105.77403712505475,None,j,0,mouse,f,0,[0.285],[-0.04833333333333333],[1],[0],[0],[0.16684158402495086],,,,300505,001,2026-04-25_15h51.50.308,experiment,2024.2.4,None,2026-04-25 15h52.03.406853 -0700,
,,,,,,,,,,,,,,,,,,,,,,,,,,,,,,,,,,,,,,,,,,,[0.285],[-0.04833333333333333],[1],[0],[0],[0.1406484160106629],105.77480795816518,105.78260925016366,105.78260925016366,,,,,,,,
