trial_id,word,article,correct_type,obj_image,sub_image,phrase,trial_type,thisN,thisTrialN,thisRepN,key_resp.keys,key_resp.rt,key_resp.duration,trials_loop.thisRepN,trials_loop.thisTrialN,trials_loop.thisN,trials_loop.thisIndex,thisRow.t,notes,instruction.started,Welcome.started,start_key.started,instruction.stopped,start_key.keys,start_key.rt,start_key.duration,trial.started,sentence.started,image_left.started,image_right.started,key_resp.started,trial.stopped,trials_loop.key_resp.keys,trials_loop.key_resp.rt,trials_loop.key_resp.duration,response,rt,correct_response,accuracy,thankyou.started,thankyou_text.started,end_key.started,thankyou.stopped,end_key.keys,end_key.rt,end_key.duration,participant,session,date,expName,psychopyVersion,frameRate,expStart,
,,,,,,,,,,,,,,,,,,,,0.051075374940410256,0.06531274993903935,0.06531274993903935,1.7110718749463558,f,1.3176250830292702,None,,,,,,,,,,,,,,,,,,,,,588197,001,2026-04-22_10h12.33.383,experiment,2024.2.4,None,2026-04-22 10h12.50.439147 -0700,
69,boarse,None,sub,o11.png,s17.png,look,critical,0,0,0,j,0.7206769159529358,None,0,0,0,68,2.233487291028723,,,,,,,,,2.1092746248468757,2.233487291028723,2.233487291028723,2.233487291028723,2.233487291028723,2.956057374831289,j,0.7206769159529358,None,j,0.7206769159529358,j,1,,,,,,,,588197,001,2026-04-22_10h12.33.383,experiment,2024.2.4,None,2026-04-22 10h12.50.439147 -0700,
3,wis,a,obj,o9.png,s12.png,look,critical,1,1,0,j,2.760481707053259,None,0,1,1,2,3.2635149999987334,,,,,,,,,3.254762375028804,3.2635149999987334,3.2635149999987334,3.2635149999987334,3.2635149999987334,6.033531541004777,j,2.760481707053259,None,j,2.760481707053259,j,1,,,,,,,,588197,001,2026-04-22_10h12.33.383,experiment,2024.2.4,None,2026-04-22 10h12.50.439147 -0700,
2,stutch,a,obj,o7.png,s20.png,look,critical,2,2,0,j,3.3360539579298347,None,0,2,2,1,6.3617617909330875,,,,,,,,,6.339181457879022,6.3617617909330875,6.3617617909330875,6.3617617909330875,6.3617617909330875,9.700122082838789,j,3.3360539579298347,None,j,3.3360539579298347,j,1,,,,,,,,588197,001,2026-04-22_10h12.33.383,experiment,2024.2.4,None,2026-04-22 10h12.50.439147 -0700,
5,vow,None,sub,o3.png,s1.png,look,critical,3,3,0,f,5.859739666106179,None,0,3,3,4,9.970480083022267,,,,,,,,,9.96141270804219,9.970480083022267,9.970480083022267,9.970480083022267,9.970480083022267,15.833155540982261,f,5.859739666106179,None,f,5.859739666106179,j,0,,,,,,,,588197,001,2026-04-22_10h12.33.383,experiment,2024.2.4,None,2026-04-22 10h12.50.439147 -0700,
58,vow,a,obj,o4.png,s10.png,there_is,filler,4,4,0,f,3.469040208030492,None,0,4,4,57,16.13031299994327,,,,,,,,,16.119099874980748,16.13031299994327,16.13031299994327,16.13031299994327,16.13031299994327,19.60078629083,f,3.469040208030492,None,f,3.469040208030492,f,1,,,,,,,,588197,001,2026-04-22_10h12.33.383,experiment,2024.2.4,None,2026-04-22 10h12.50.439147 -0700,
44,stutch,None,sub,o19.png,s5.png,there_is,filler,5,5,0,f,8.510337081970647,None,0,5,5,43,19.90982991596684,,,,,,,,,19.90069583291188,19.90982991596684,19.90982991596684,19.90982991596684,19.90982991596684,28.42188375000842,f,8.510337081970647,None,f,8.510337081970647,f,1,,,,,,,,588197,001,2026-04-22_10h12.33.383,experiment,2024.2.4,None,2026-04-22 10h12.50.439147 -0700,
77,praith,a,obj,o2.png,s14.png,there_is,filler,6,6,0,j,6.122638707049191,None,0,6,6,76,28.713416332844645,,,,,,,,,28.704352415865287,28.713416332844645,28.713416332844645,28.713416332844645,28.713416332844645,34.839552083052695,j,6.122638707049191,None,j,6.122638707049191,j,1,,,,,,,,588197,001,2026-04-22_10h12.33.383,experiment,2024.2.4,None,2026-04-22 10h12.50.439147 -0700,
98,zeg,None,sub,o10.png,s15.png,there_is,filler,7,7,0,j,5.2536659999750555,None,0,7,7,97,35.11650212504901,,,,,,,,,35.108159499941394,35.11650212504901,35.11650212504901,35.11650212504901,35.11650212504901,40.37197874998674,j,5.2536659999750555,None,j,5.2536659999750555,j,1,,,,,,,,588197,001,2026-04-22_10h12.33.383,experiment,2024.2.4,None,2026-04-22 10h12.50.439147 -0700,
25,smeck,a,obj,o18.png,s13.png,look,critical,8,8,0,f,7.497012207983062,None,0,8,8,24,40.652527124853805,,,,,,,,,40.643034250009805,40.652527124853805,40.652527124853805,40.652527124853805,40.652527124853805,48.155717083020136,f,7.497012207983062,None,f,7.497012207983062,f,1,,,,,,,,588197,001,2026-04-22_10h12.33.383,experiment,2024.2.4,None,2026-04-22 10h12.50.439147 -0700,
15,kal,a,obj,o13.png,s13.png,there_is,filler,9,9,0,j,5.205228373873979,None,0,9,9,14,48.43752916599624,,,,,,,,,48.429148874944076,48.43752916599624,48.43752916599624,48.43752916599624,48.43752916599624,53.65023549995385,j,5.205228373873979,None,j,5.205228373873979,j,1,,,,,,,,588197,001,2026-04-22_10h12.33.383,experiment,2024.2.4,None,2026-04-22 10h12.50.439147 -0700,
21,blick,a,obj,o6.png,s9.png,look,critical,10,10,0,f,3.745418749982491,None,0,10,10,20,53.93633099994622,,,,,,,,,53.927606540964916,53.93633099994622,53.93633099994622,53.93633099994622,53.93633099994622,57.68350883293897,f,3.745418749982491,None,f,3.745418749982491,f,1,,,,,,,,588197,001,2026-04-22_10h12.33.383,experiment,2024.2.4,None,2026-04-22 10h12.50.439147 -0700,
90,trebe,a,obj,o19.png,s6.png,look,critical,11,11,0,f,5.640539332991466,None,0,11,11,89,57.970436290837824,,,,,,,,,57.961659082910046,57.970436290837824,57.970436290837824,57.970436290837824,57.970436290837824,63.616751957917586,f,5.640539332991466,None,f,5.640539332991466,f,1,,,,,,,,588197,001,2026-04-22_10h12.33.383,experiment,2024.2.4,None,2026-04-22 10h12.50.439147 -0700,
31,phrup,a,obj,o10.png,s19.png,that_is,filler,12,12,0,f,6.302364333067089,None,0,12,12,30,63.809600540902466,,,,,,,,,63.80271791596897,63.809600540902466,63.809600540902466,63.809600540902466,63.809600540902466,70.11675016605295,f,6.302364333067089,None,f,6.302364333067089,f,1,,,,,,,,588197,001,2026-04-22_10h12.33.383,experiment,2024.2.4,None,2026-04-22 10h12.50.439147 -0700,
43,poy,a,obj,o3.png,s21.png,look,critical,13,13,0,j,1.9655988321173936,None,0,13,13,42,70.41247024992481,,,,,,,,,70.40474099991843,70.41247024992481,70.41247024992481,70.41247024992481,70.41247024992481,72.38426620792598,j,1.9655988321173936,None,j,1.9655988321173936,j,1,,,,,,,,588197,001,2026-04-22_10h12.33.383,experiment,2024.2.4,None,2026-04-22 10h12.50.439147 -0700,
52,crolt,a,obj,o2.png,s9.png,look,critical,14,14,0,f,4.523329373914748,None,0,14,14,51,72.66296716593206,,,,,,,,,72.65387433301657,72.66296716593206,72.66296716593206,72.66296716593206,72.66296716593206,77.18946891603991,f,4.523329373914748,None,f,4.523329373914748,f,1,,,,,,,,588197,001,2026-04-22_10h12.33.383,experiment,2024.2.4,None,2026-04-22 10h12.50.439147 -0700,
68,tem,None,sub,o14.png,s25.png,look,critical,15,15,0,f,5.691190374083817,None,0,15,15,67,77.36993412487209,,,,,,,,,77.36174533283338,77.36993412487209,77.36993412487209,77.36993412487209,77.36993412487209,83.06719670793973,f,5.691190374083817,None,f,5.691190374083817,f,1,,,,,,,,588197,001,2026-04-22_10h12.33.383,experiment,2024.2.4,None,2026-04-22 10h12.50.439147 -0700,
49,tharge,None,sub,o20.png,s23.png,that_is,filler,16,16,0,j,5.62013420695439,None,0,16,16,48,83.37719591590576,,,,,,,,,83.36847358290106,83.37719591590576,83.37719591590576,83.37719591590576,83.37719591590576,89.00029466603883,j,5.62013420695439,None,j,5.62013420695439,j,1,,,,,,,,588197,001,2026-04-22_10h12.33.383,experiment,2024.2.4,None,2026-04-22 10h12.50.439147 -0700,
78,plyne,a,obj,o5.png,s25.png,that_is,filler,17,17,0,j,4.180694249924272,None,0,17,17,77,89.19863749993965,,,,,,,,,89.19115591584705,89.19863749993965,89.19863749993965,89.19863749993965,89.19863749993965,93.38354466599412,j,4.180694249924272,None,j,4.180694249924272,j,1,,,,,,,,588197,001,2026-04-22_10h12.33.383,experiment,2024.2.4,None,2026-04-22 10h12.50.439147 -0700,
91,poy,a,obj,o8.png,s5.png,there_is,filler,18,18,0,j,6.062177415937185,None,0,18,18,90,93.71775008295663,,,,,,,,,93.70901529095136,93.71775008295663,93.71775008295663,93.71775008295663,93.71775008295663,99.78355537494645,j,6.062177415937185,None,j,6.062177415937185,j,1,,,,,,,,588197,001,2026-04-22_10h12.33.383,experiment,2024.2.4,None,2026-04-22 10h12.50.439147 -0700,
24,vow,a,obj,o24.png,s22.png,look,critical,19,19,0,j,15.775397541001439,None,0,19,19,23,100.06328450003639,,,,,,,,,100.05482458299957,100.06328450003639,100.06328450003639,100.06328450003639,100.06328450003639,115.85015695798211,j,15.775397541001439,None,j,15.775397541001439,j,1,,,,,,,,588197,001,2026-04-22_10h12.33.383,experiment,2024.2.4,None,2026-04-22 10h12.50.439147 -0700,
86,kreet,None,sub,o16.png,s5.png,look,critical,20,20,0,f,16.54620266612619,None,0,20,20,85,116.1800106659066,,,,,,,,,116.17133775004186,116.1800106659066,116.1800106659066,116.1800106659066,116.1800106659066,132.7338084578514,f,16.54620266612619,None,f,16.54620266612619,f,1,,,,,,,,588197,001,2026-04-22_10h12.33.383,experiment,2024.2.4,None,2026-04-22 10h12.50.439147 -0700,
88,smeck,None,sub,o10.png,s11.png,there_is,filler,21,21,0,f,10.114271415863186,None,0,21,21,87,133.0528002078645,,,,,,,,,133.04431041586213,133.0528002078645,133.0528002078645,133.0528002078645,133.0528002078645,143.1731481659226,f,10.114271415863186,None,f,10.114271415863186,f,1,,,,,,,,588197,001,2026-04-22_10h12.33.383,experiment,2024.2.4,None,2026-04-22 10h12.50.439147 -0700,
70,trebe,None,sub,o18.png,s5.png,that_is,filler,22,22,0,j,4.139319041045383,None,0,22,22,69,143.4816325409338,,,,,,,,,143.4732396248728,143.4816325409338,143.4816325409338,143.4816325409338,143.4816325409338,147.62242287490517,j,4.139319041045383,None,j,4.139319041045383,f,0,,,,,,,,588197,001,2026-04-22_10h12.33.383,experiment,2024.2.4,None,2026-04-22 10h12.50.439147 -0700,
12,plyne,None,sub,o12.png,s12.png,look,critical,23,23,0,f,6.075290874810889,None,0,23,23,11,147.91658420790918,,,,,,,,,147.90864299982786,147.91658420790918,147.91658420790918,147.91658420790918,147.91658420790918,154.00017212494276,f,6.075290874810889,None,f,6.075290874810889,f,1,,,,,,,,588197,001,2026-04-22_10h12.33.383,experiment,2024.2.4,None,2026-04-22 10h12.50.439147 -0700,
80,tib,None,sub,o4.png,s19.png,look,critical,24,24,0,j,3.503598541021347,None,0,24,24,79,154.1723210408818,,,,,,,,,154.16591320792213,154.1723210408818,154.1723210408818,154.1723210408818,154.1723210408818,157.6789219158236,j,3.503598541021347,None,j,3.503598541021347,j,1,,,,,,,,588197,001,2026-04-22_10h12.33.383,experiment,2024.2.4,None,2026-04-22 10h12.50.439147 -0700,
28,wug,a,obj,o11.png,s15.png,there_is,filler,25,25,0,f,4.850457957945764,None,0,25,25,27,157.93757337494753,,,,,,,,,157.92843904090114,157.93757337494753,157.93757337494753,157.93757337494753,157.93757337494753,162.78991420799866,f,4.850457957945764,None,f,4.850457957945764,f,1,,,,,,,,588197,001,2026-04-22_10h12.33.383,experiment,2024.2.4,None,2026-04-22 10h12.50.439147 -0700,
84,tib,a,obj,o3.png,s20.png,there_is,filler,26,26,0,f,11.451674624811858,None,0,26,26,83,163.08289966592565,,,,,,,,,163.07507866597734,163.08289966592565,163.08289966592565,163.08289966592565,163.08289966592565,174.53994583291933,f,11.451674624811858,None,f,11.451674624811858,f,1,,,,,,,,588197,001,2026-04-22_10h12.33.383,experiment,2024.2.4,None,2026-04-22 10h12.50.439147 -0700,
1,tib,None,sub,o18.png,s20.png,there_is,filler,27,27,0,f,5.729046165943146,None,0,27,27,0,174.83334745792672,,,,,,,,,174.8242695829831,174.83334745792672,174.83334745792672,174.83334745792672,174.83334745792672,180.56714712502435,f,5.729046165943146,None,f,5.729046165943146,f,1,,,,,,,,588197,001,2026-04-22_10h12.33.383,experiment,2024.2.4,None,2026-04-22 10h12.50.439147 -0700,
100,crolt,a,obj,o14.png,s25.png,that_is,filler,28,28,0,j,3.936991248978302,None,0,28,28,99,180.7432770829182,,,,,,,,,180.73570037493482,180.7432770829182,180.7432770829182,180.7432770829182,180.7432770829182,184.68390124989673,j,3.936991248978302,None,j,3.936991248978302,j,1,,,,,,,,588197,001,2026-04-22_10h12.33.383,experiment,2024.2.4,None,2026-04-22 10h12.50.439147 -0700,
51,kal,None,sub,o12.png,s4.png,there_is,filler,29,29,0,j,4.883201540913433,None,0,29,29,50,184.85589479096234,,,,,,,,,184.84940304094926,184.85589479096234,184.85589479096234,184.85589479096234,184.85589479096234,189.7505443750415,j,4.883201540913433,None,j,4.883201540913433,f,0,,,,,,,,588197,001,2026-04-22_10h12.33.383,experiment,2024.2.4,None,2026-04-22 10h12.50.439147 -0700,
64,blick,None,sub,o3.png,s13.png,that_is,filler,30,30,0,f,0.9460113740060478,None,0,30,30,63,190.03410204104148,,,,,,,,,190.02580191590823,190.03410204104148,190.03410204104148,190.03410204104148,190.03410204104148,190.984168499941,f,0.9460113740060478,None,f,0.9460113740060478,f,1,,,,,,,,588197,001,2026-04-22_10h12.33.383,experiment,2024.2.4,None,2026-04-22 10h12.50.439147 -0700,
11,fusk,a,obj,o3.png,s18.png,that_is,filler,31,31,0,j,0.6884474579710513,None,0,31,31,10,191.2546770828776,,,,,,,,,191.24747766600922,191.2546770828776,191.2546770828776,191.2546770828776,191.2546770828776,191.95046991598792,j,0.6884474579710513,None,j,0.6884474579710513,f,0,,,,,,,,588197,001,2026-04-22_10h12.33.383,experiment,2024.2.4,None,2026-04-22 10h12.50.439147 -0700,
38,boarse,a,obj,o7.png,s21.png,look,critical,32,32,0,f,2.537260081851855,None,0,32,32,37,192.2517853330355,,,,,,,,,192.2436032500118,192.2517853330355,192.2517853330355,192.2517853330355,192.2517853330355,194.80038491589949,f,2.537260081851855,None,f,2.537260081851855,f,1,,,,,,,,588197,001,2026-04-22_10h12.33.383,experiment,2024.2.4,None,2026-04-22 10h12.50.439147 -0700,
4,tarb,a,obj,o20.png,s24.png,look,critical,33,33,0,f,9.494734916137531,None,0,33,33,3,195.08906016591936,,,,,,,,,195.08173366589472,195.08906016591936,195.08906016591936,195.08906016591936,195.08906016591936,204.58970541600138,f,9.494734916137531,None,f,9.494734916137531,f,1,,,,,,,,588197,001,2026-04-22_10h12.33.383,experiment,2024.2.4,None,2026-04-22 10h12.50.439147 -0700,
41,tib,a,obj,o12.png,s3.png,look,critical,34,34,0,j,2.7158717489801347,None,0,34,34,40,204.8817950829398,,,,,,,,,204.8727511658799,204.8817950829398,204.8817950829398,204.8817950829398,204.8817950829398,207.60081433295272,j,2.7158717489801347,None,j,2.7158717489801347,j,1,,,,,,,,588197,001,2026-04-22_10h12.33.383,experiment,2024.2.4,None,2026-04-22 10h12.50.439147 -0700,
23,tharge,None,sub,o23.png,s1.png,look,critical,35,35,0,j,5.8555074580945075,None,0,35,35,22,207.89100924995728,,,,,,,,,207.8825075828936,207.89100924995728,207.89100924995728,207.89100924995728,207.89100924995728,213.75070558302104,j,5.8555074580945075,None,j,5.8555074580945075,j,1,,,,,,,,588197,001,2026-04-22_10h12.33.383,experiment,2024.2.4,None,2026-04-22 10h12.50.439147 -0700,
55,tarb,None,sub,o2.png,s23.png,look,critical,36,36,0,j,5.012706500012428,None,0,36,36,54,214.03865849995054,,,,,,,,,214.03024512482807,214.03865849995054,214.03865849995054,214.03865849995054,214.03865849995054,219.05680962488987,j,5.012706500012428,None,j,5.012706500012428,j,1,,,,,,,,588197,001,2026-04-22_10h12.33.383,experiment,2024.2.4,None,2026-04-22 10h12.50.439147 -0700,
92,phrup,None,sub,o7.png,s7.png,look,critical,37,37,0,j,11.795142291113734,None,0,37,37,91,219.3489244999364,,,,,,,,,219.34086116589606,219.3489244999364,219.3489244999364,219.3489244999364,219.3489244999364,231.15054345782846,j,11.795142291113734,None,j,11.795142291113734,j,1,,,,,,,,588197,001,2026-04-22_10h12.33.383,experiment,2024.2.4,None,2026-04-22 10h12.50.439147 -0700,
34,ses,a,obj,o11.png,s4.png,there_is,filler,38,38,0,j,5.523812832077965,None,0,38,38,33,231.30415462492965,,,,,,,,,231.29894979088567,231.30415462492965,231.30415462492965,231.30415462492965,231.30415462492965,236.83388337492943,j,5.523812832077965,None,j,5.523812832077965,f,0,,,,,,,,588197,001,2026-04-22_10h12.33.383,experiment,2024.2.4,None,2026-04-22 10h12.50.439147 -0700,
10,tharge,a,obj,o1.png,s2.png,look,critical,39,39,0,j,2.907708249054849,None,0,39,39,9,237.12413004087284,,,,,,,,,237.1168675830122,237.12413004087284,237.12413004087284,237.12413004087284,237.12413004087284,240.03401929093525,j,2.907708249054849,None,j,2.907708249054849,j,1,,,,,,,,588197,001,2026-04-22_10h12.33.383,experiment,2024.2.4,None,2026-04-22 10h12.50.439147 -0700,
74,wis,a,obj,o19.png,s25.png,there_is,filler,40,40,0,f,3.3782724579796195,None,0,40,40,73,240.20449291588739,,,,,,,,,240.1972027909942,240.20449291588739,240.20449291588739,240.20449291588739,240.20449291588739,243.58430612483062,f,3.3782724579796195,None,f,3.3782724579796195,f,1,,,,,,,,588197,001,2026-04-22_10h12.33.383,experiment,2024.2.4,None,2026-04-22 10h12.50.439147 -0700,
94,wug,None,sub,o1.png,s10.png,look,critical,41,41,0,j,5.339297832921147,None,0,41,41,93,243.8673202909995,,,,,,,,,243.85937691596337,243.8673202909995,243.8673202909995,243.8673202909995,243.8673202909995,249.21736341598444,j,5.339297832921147,None,j,5.339297832921147,f,0,,,,,,,,588197,001,2026-04-22_10h12.33.383,experiment,2024.2.4,None,2026-04-22 10h12.50.439147 -0700,
32,smeck,None,sub,o15.png,s3.png,look,critical,42,42,0,j,7.4924793320242316,None,0,42,42,31,249.52391608292237,,,,,,,,,249.51562687498517,249.52391608292237,249.52391608292237,249.52391608292237,249.52391608292237,257.01748108305037,j,7.4924793320242316,None,j,7.4924793320242316,f,0,,,,,,,,588197,001,2026-04-22_10h12.33.383,experiment,2024.2.4,None,2026-04-22 10h12.50.439147 -0700,
36,blick,None,sub,o3.png,s10.png,look,critical,43,43,0,f,4.48872449900955,None,0,43,43,35,257.29262266587466,,,,,,,,,257.28400112502277,257.29262266587466,257.29262266587466,257.29262266587466,257.29262266587466,261.7841088329442,f,4.48872449900955,None,f,4.48872449900955,f,1,,,,,,,,588197,001,2026-04-22_10h12.33.383,experiment,2024.2.4,None,2026-04-22 10h12.50.439147 -0700,
87,poy,None,sub,o13.png,s17.png,look,critical,44,44,0,f,5.395547291031107,None,0,44,44,86,262.06566754099913,,,,,,,,,262.05761683289893,262.06566754099913,262.06566754099913,262.06566754099913,262.06566754099913,267.4676489159465,f,5.395547291031107,None,f,5.395547291031107,f,1,,,,,,,,588197,001,2026-04-22_10h12.33.383,experiment,2024.2.4,None,2026-04-22 10h12.50.439147 -0700,
47,kreet,a,obj,o12.png,s24.png,look,critical,45,45,0,j,9.419602040899917,None,0,45,45,46,267.752492332831,,,,,,,,,267.7440749579109,267.752492332831,267.752492332831,267.752492332831,267.752492332831,277.17327516595833,j,9.419602040899917,None,j,9.419602040899917,j,1,,,,,,,,588197,001,2026-04-22_10h12.33.383,experiment,2024.2.4,None,2026-04-22 10h12.50.439147 -0700,
63,tem,a,obj,o11.png,s9.png,there_is,filler,46,46,0,j,5.011266040848568,None,0,46,46,62,277.42944945790805,,,,,,,,,277.4210863329936,277.42944945790805,277.42944945790805,277.42944945790805,277.42944945790805,282.4507225409616,j,5.011266040848568,None,j,5.011266040848568,j,1,,,,,,,,588197,001,2026-04-22_10h12.33.383,experiment,2024.2.4,None,2026-04-22 10h12.50.439147 -0700,
33,rop,None,sub,o12.png,s13.png,there_is,filler,47,47,0,j,8.300128540955484,None,0,47,47,32,282.73834579088725,,,,,,,,,282.7299048330169,282.73834579088725,282.73834579088725,282.73834579088725,282.73834579088725,291.0401774998754,j,8.300128540955484,None,j,8.300128540955484,j,1,,,,,,,,588197,001,2026-04-22_10h12.33.383,experiment,2024.2.4,None,2026-04-22 10h12.50.439147 -0700,
79,phrup,a,obj,o11.png,s17.png,look,critical,48,48,0,f,5.786923415958881,None,0,48,48,78,291.30562933301553,,,,,,,,,291.29834887501784,291.30562933301553,291.30562933301553,291.30562933301553,291.30562933301553,297.10077645792626,f,5.786923415958881,None,f,5.786923415958881,f,1,,,,,,,,588197,001,2026-04-22_10h12.33.383,experiment,2024.2.4,None,2026-04-22 10h12.50.439147 -0700,
30,zeg,a,obj,o16.png,s12.png,there_is,filler,49,49,0,j,2.955142081947997,None,0,49,49,29,297.4023187079001,,,,,,,,,297.39492591586895,297.4023187079001,297.4023187079001,297.4023187079001,297.4023187079001,300.3673263329547,j,2.955142081947997,None,j,2.955142081947997,j,1,,,,,,,,588197,001,2026-04-22_10h12.33.383,experiment,2024.2.4,None,2026-04-22 10h12.50.439147 -0700,
81,plyne,None,sub,o20.png,s21.png,that_is,filler,50,50,0,f,8.062134040985256,None,0,50,50,80,300.66451279097237,,,,,,,,,300.6561547080055,300.66451279097237,300.66451279097237,300.66451279097237,300.66451279097237,308.7343737499323,f,8.062134040985256,None,f,8.062134040985256,f,1,,,,,,,,588197,001,2026-04-22_10h12.33.383,experiment,2024.2.4,None,2026-04-22 10h12.50.439147 -0700,
6,trebe,a,obj,o5.png,s22.png,that_is,filler,51,51,0,j,2.8266398331616074,None,0,51,51,5,309.0390103328973,,,,,,,,,309.0299482909031,309.0390103328973,309.0390103328973,309.0390103328973,309.0390103328973,311.867450249847,j,2.8266398331616074,None,j,2.8266398331616074,j,1,,,,,,,,588197,001,2026-04-22_10h12.33.383,experiment,2024.2.4,None,2026-04-22 10h12.50.439147 -0700,
66,clet,a,obj,o1.png,s9.png,look,critical,52,52,0,j,1.9786842500325292,None,0,52,52,65,312.1240299998317,,,,,,,,,312.1155377498362,312.1240299998317,312.1240299998317,312.1240299998317,312.1240299998317,314.1065319578629,j,1.9786842500325292,None,j,1.9786842500325292,j,1,,,,,,,,588197,001,2026-04-22_10h12.33.383,experiment,2024.2.4,None,2026-04-22 10h12.50.439147 -0700,
50,praith,None,sub,o11.png,s10.png,there_is,filler,53,53,0,j,1.266311873914674,None,0,53,53,49,314.37044987501577,,,,,,,,,314.3633299579378,314.37044987501577,314.37044987501577,314.37044987501577,314.37044987501577,315.63999000005424,j,1.266311873914674,None,j,1.266311873914674,f,0,,,,,,,,588197,001,2026-04-22_10h12.33.383,experiment,2024.2.4,None,2026-04-22 10h12.50.439147 -0700,
17,phrup,None,sub,o21.png,s19.png,that_is,filler,54,54,0,f,1.0545919160358608,None,0,54,54,16,315.81503954087384,,,,,,,,,315.80774020799436,315.81503954087384,315.81503954087384,315.81503954087384,315.81503954087384,316.8730134998914,f,1.0545919160358608,None,f,1.0545919160358608,f,1,,,,,,,,588197,001,2026-04-22_10h12.33.383,experiment,2024.2.4,None,2026-04-22 10h12.50.439147 -0700,
18,vow,None,sub,o12.png,s10.png,there_is,filler,55,55,0,f,2.1839886240195483,None,0,55,55,17,317.16572458297014,,,,,,,,,317.1574246250093,317.16572458297014,317.16572458297014,317.16572458297014,317.16572458297014,319.35069274995476,f,2.1839886240195483,None,f,2.1839886240195483,j,0,,,,,,,,588197,001,2026-04-22_10h12.33.383,experiment,2024.2.4,None,2026-04-22 10h12.50.439147 -0700,
73,blick,a,obj,o20.png,s22.png,that_is,filler,56,56,0,j,0.13529999880120158,None,0,56,56,72,319.6342395830434,,,,,,,,,319.6256317498628,319.6342395830434,319.6342395830434,319.6342395830434,319.6342395830434,319.77261591586284,j,0.13529999880120158,None,j,0.13529999880120158,j,1,,,,,,,,588197,001,2026-04-22_10h12.33.383,experiment,2024.2.4,None,2026-04-22 10h12.50.439147 -0700,
54,stutch,a,obj,o25.png,s24.png,there_is,filler,57,57,0,f,0.46080887503921986,None,0,57,57,53,320.0627220410388,,,,,,,,,320.05517308297567,320.0627220410388,320.0627220410388,320.0627220410388,320.0627220410388,320.5341572079342,f,0.46080887503921986,None,f,0.46080887503921986,j,0,,,,,,,,588197,001,2026-04-22_10h12.33.383,experiment,2024.2.4,None,2026-04-22 10h12.50.439147 -0700,
72,wug,a,obj,o2.png,s4.png,look,critical,58,58,0,j,2.36910487501882,None,0,58,58,71,320.7033834159374,,,,,,,,,320.6958762500435,320.7033834159374,320.7033834159374,320.7033834159374,320.7033834159374,323.07374412496574,j,2.36910487501882,None,j,2.36910487501882,j,1,,,,,,,,588197,001,2026-04-22_10h12.33.383,experiment,2024.2.4,None,2026-04-22 10h12.50.439147 -0700,
75,zeg,a,obj,o10.png,s19.png,look,critical,59,59,0,j,4.276864249957725,None,0,59,59,74,323.2454355000518,,,,,,,,,323.2381175828632,323.2454355000518,323.2454355000518,323.2454355000518,323.2454355000518,327.53409670782275,j,4.276864249957725,None,j,4.276864249957725,j,1,,,,,,,,588197,001,2026-04-22_10h12.33.383,experiment,2024.2.4,None,2026-04-22 10h12.50.439147 -0700,
40,wug,None,sub,o10.png,s24.png,there_is,filler,60,60,0,j,3.9338778748642653,None,0,60,60,39,327.82956362492405,,,,,,,,,327.8210733749438,327.82956362492405,327.82956362492405,327.82956362492405,327.82956362492405,331.76748999999836,j,3.9338778748642653,None,j,3.9338778748642653,j,1,,,,,,,,588197,001,2026-04-22_10h12.33.383,experiment,2024.2.4,None,2026-04-22 10h12.50.439147 -0700,
27,fusk,a,obj,o21.png,s25.png,look,critical,61,61,0,j,2.5675520000513643,None,0,61,61,26,331.94500499987043,,,,,,,,,331.9389147909824,331.94500499987043,331.94500499987043,331.94500499987043,331.94500499987043,334.5175329998601,j,2.5675520000513643,None,j,2.5675520000513643,f,0,,,,,,,,588197,001,2026-04-22_10h12.33.383,experiment,2024.2.4,None,2026-04-22 10h12.50.439147 -0700,
85,crolt,None,sub,o5.png,s20.png,that_is,filler,62,62,0,f,0.11553324898704886,None,0,62,62,84,334.8488602079451,,,,,,,,,334.840258958051,334.8488602079451,334.8488602079451,334.8488602079451,334.8488602079451,334.96751554100774,f,0.11553324898704886,None,f,0.11553324898704886,j,0,,,,,,,,588197,001,2026-04-22_10h12.33.383,experiment,2024.2.4,None,2026-04-22 10h12.50.439147 -0700,
20,flane,None,sub,o16.png,s12.png,that_is,filler,63,63,0,j,0.7718202490359545,None,0,63,63,19,335.2736779160332,,,,,,,,,335.26511924993247,335.2736779160332,335.2736779160332,335.2736779160332,335.2736779160332,336.0508035828825,j,0.7718202490359545,None,j,0.7718202490359545,f,0,,,,,,,,588197,001,2026-04-22_10h12.33.383,experiment,2024.2.4,None,2026-04-22 10h12.50.439147 -0700,
26,boarse,a,obj,o20.png,s8.png,that_is,filler,64,64,0,j,0.9465662911534309,None,0,64,64,25,336.34076333302073,,,,,,,,,336.3307888749987,336.34076333302073,336.34076333302073,336.34076333302073,336.34076333302073,337.2902950409334,j,0.9465662911534309,None,j,0.9465662911534309,j,1,,,,,,,,588197,001,2026-04-22_10h12.33.383,experiment,2024.2.4,None,2026-04-22 10h12.50.439147 -0700,
42,rop,a,obj,o17.png,s3.png,look,critical,65,65,0,j,0.3791631660424173,None,0,65,65,41,337.59316908288747,,,,,,,,,337.58490958297625,337.59316908288747,337.59316908288747,337.59316908288747,337.59316908288747,337.97559212497436,j,0.3791631660424173,None,j,0.3791631660424173,j,1,,,,,,,,588197,001,2026-04-22_10h12.33.383,experiment,2024.2.4,None,2026-04-22 10h12.50.439147 -0700,
48,kal,a,obj,o18.png,s10.png,look,critical,66,66,0,f,0.01893887505866587,None,0,66,66,47,338.2494594999589,,,,,,,,,338.242219540989,338.2494594999589,338.2494594999589,338.2494594999589,338.2494594999589,338.2748095828574,f,0.01893887505866587,None,f,0.01893887505866587,j,0,,,,,,,,588197,001,2026-04-22_10h12.33.383,experiment,2024.2.4,None,2026-04-22 10h12.50.439147 -0700,
60,tarb,None,sub,o12.png,s13.png,that_is,filler,67,67,0,f,0.6916423740331084,None,0,67,67,59,338.5606727078557,,,,,,,,,338.55324333300814,338.5606727078557,338.5606727078557,338.5606727078557,338.5606727078557,339.2561429999769,f,0.6916423740331084,None,f,0.6916423740331084,f,1,,,,,,,,588197,001,2026-04-22_10h12.33.383,experiment,2024.2.4,None,2026-04-22 10h12.50.439147 -0700,
7,praith,a,obj,o17.png,s10.png,look,critical,68,68,0,f,0.3775177909992635,None,0,68,68,6,339.5508122500032,,,,,,,,,339.54261170793325,339.5508122500032,339.5508122500032,339.5508122500032,339.5508122500032,339.9342508749105,f,0.3775177909992635,None,f,0.3775177909992635,f,1,,,,,,,,588197,001,2026-04-22_10h12.33.383,experiment,2024.2.4,None,2026-04-22 10h12.50.439147 -0700,
67,trebe,None,sub,o8.png,s11.png,look,critical,69,69,0,j,0.2719557909294963,None,0,69,69,66,340.2414581249468,,,,,,,,,340.2332275409717,340.2414581249468,340.2414581249468,340.2414581249468,340.2414581249468,340.5175588328857,j,0.2719557909294963,None,j,0.2719557909294963,j,1,,,,,,,,588197,001,2026-04-22_10h12.33.383,experiment,2024.2.4,None,2026-04-22 10h12.50.439147 -0700,
39,smeck,a,obj,o8.png,s6.png,there_is,filler,70,70,0,j,1.285029832040891,None,0,70,70,38,340.8182962499559,,,,,,,,,340.8098971659783,340.8182962499559,340.8182962499559,340.8182962499559,340.8182962499559,342.10630999994464,j,1.285029832040891,None,j,1.285029832040891,j,1,,,,,,,,588197,001,2026-04-22_10h12.33.383,experiment,2024.2.4,None,2026-04-22 10h12.50.439147 -0700,
9,crolt,None,sub,o12.png,s22.png,look,critical,71,71,0,j,0.5533700829837471,None,0,71,71,8,342.3829516249243,,,,,,,,,342.3752238750458,342.3829516249243,342.3829516249243,342.3829516249243,342.3829516249243,342.9394644580316,j,0.5533700829837471,None,j,0.5533700829837471,j,1,,,,,,,,588197,001,2026-04-22_10h12.33.383,experiment,2024.2.4,None,2026-04-22 10h12.50.439147 -0700,
19,clet,a,obj,o15.png,s16.png,that_is,filler,72,72,0,j,0.09025766607373953,None,0,72,72,18,343.23902995791286,,,,,,,,,343.23068904085085,343.23902995791286,343.23902995791286,343.23902995791286,343.23902995791286,343.33379491604865,j,0.09025766607373953,None,j,0.09025766607373953,f,0,,,,,,,,588197,001,2026-04-22_10h12.33.383,experiment,2024.2.4,None,2026-04-22 10h12.50.439147 -0700,
82,tarb,a,obj,o22.png,s17.png,that_is,filler,73,73,0,f,0.2081334579270333,None,0,73,73,81,343.62114420789294,,,,,,,,,343.6127853328362,343.62114420789294,343.62114420789294,343.62114420789294,343.62114420789294,343.8343872500118,f,0.2081334579270333,None,f,0.2081334579270333,f,1,,,,,,,,588197,001,2026-04-22_10h12.33.383,experiment,2024.2.4,None,2026-04-22 10h12.50.439147 -0700,
37,zeg,None,sub,o11.png,s11.png,look,critical,74,74,0,f,0.24913958203978837,None,0,74,74,36,344.11422733287327,,,,,,,,,344.1058978328947,344.11422733287327,344.11422733287327,344.11422733287327,344.11422733287327,344.3674821660388,f,0.24913958203978837,None,f,0.24913958203978837,f,1,,,,,,,,588197,001,2026-04-22_10h12.33.383,experiment,2024.2.4,None,2026-04-22 10h12.50.439147 -0700,
65,poy,None,sub,o21.png,s21.png,there_is,filler,75,75,0,f,0.29506387491710484,None,0,75,75,64,344.66306995786726,,,,,,,,,344.65448949998245,344.66306995786726,344.66306995786726,344.66306995786726,344.66306995786726,344.9674687909428,f,0.29506387491710484,None,f,0.29506387491710484,j,0,,,,,,,,588197,001,2026-04-22_10h12.33.383,experiment,2024.2.4,None,2026-04-22 10h12.50.439147 -0700,
59,kal,None,sub,o2.png,s19.png,look,critical,76,76,0,f,0.4405678331386298,None,0,76,76,58,345.1325682909228,,,,,,,,,345.1254660410341,345.1325682909228,345.1325682909228,345.1325682909228,345.1325682909228,345.5842989999801,f,0.4405678331386298,None,f,0.4405678331386298,j,0,,,,,,,,588197,001,2026-04-22_10h12.33.383,experiment,2024.2.4,None,2026-04-22 10h12.50.439147 -0700,
22,wis,None,sub,o11.png,s9.png,there_is,filler,77,77,0,j,0.12177791609428823,None,0,77,77,21,345.8474417079706,,,,,,,,,345.83887104084715,345.8474417079706,345.8474417079706,345.8474417079706,345.8474417079706,345.97318674996495,j,0.12177791609428823,None,j,0.12177791609428823,j,1,,,,,,,,588197,001,2026-04-22_10h12.33.383,experiment,2024.2.4,None,2026-04-22 10h12.50.439147 -0700,
97,flane,a,obj,o12.png,s12.png,look,critical,78,78,0,j,0.8756964157801121,None,0,78,78,96,346.266391125042,,,,,,,,,346.25836574984714,346.266391125042,346.266391125042,346.266391125042,346.266391125042,347.15098837483674,j,0.8756964157801121,None,j,0.8756964157801121,f,0,,,,,,,,588197,001,2026-04-22_10h12.33.383,experiment,2024.2.4,None,2026-04-22 10h12.50.439147 -0700,
53,flane,a,obj,o4.png,s23.png,that_is,filler,79,79,0,j,0.1745727499946952,None,0,79,79,52,347.4426341659855,,,,,,,,,347.4343687079381,347.4426341659855,347.4426341659855,347.4426341659855,347.4426341659855,347.623527957825,j,0.1745727499946952,None,j,0.1745727499946952,j,1,,,,,,,,588197,001,2026-04-22_10h12.33.383,experiment,2024.2.4,None,2026-04-22 10h12.50.439147 -0700,
8,boarse,None,sub,o9.png,s17.png,that_is,filler,80,80,0,f,0.26533437380567193,None,0,80,80,7,347.9057488748804,,,,,,,,,347.89728679088876,347.9057488748804,347.9057488748804,347.9057488748804,347.9057488748804,348.1742744578514,f,0.26533437380567193,None,f,0.26533437380567193,f,1,,,,,,,,588197,001,2026-04-22_10h12.33.383,experiment,2024.2.4,None,2026-04-22 10h12.50.439147 -0700,
57,ses,None,sub,o9.png,s25.png,there_is,filler,81,81,0,f,0.340552540961653,None,0,81,81,56,348.3485005409457,,,,,,,,,348.34022245788947,348.3485005409457,348.3485005409457,348.3485005409457,348.3485005409457,348.6898294999264,f,0.340552540961653,None,f,0.340552540961653,j,0,,,,,,,,588197,001,2026-04-22_10h12.33.383,experiment,2024.2.4,None,2026-04-22 10h12.50.439147 -0700,
99,ses,None,sub,o4.png,s3.png,look,critical,82,82,0,f,0.24940295703709126,None,0,82,82,98,348.9857054578606,,,,,,,,,348.9775244158227,348.9857054578606,348.9857054578606,348.9857054578606,348.9857054578606,349.24031966598704,f,0.24940295703709126,None,f,0.24940295703709126,j,0,,,,,,,,588197,001,2026-04-22_10h12.33.383,experiment,2024.2.4,None,2026-04-22 10h12.50.439147 -0700,
29,rop,None,sub,o10.png,s9.png,look,critical,83,83,0,f,0.20117045706138015,None,0,83,83,28,349.52185137500055,,,,,,,,,349.5136792080011,349.52185137500055,349.52185137500055,349.52185137500055,349.52185137500055,349.7342548749875,f,0.20117045706138015,None,f,0.20117045706138015,j,0,,,,,,,,588197,001,2026-04-22_10h12.33.383,experiment,2024.2.4,None,2026-04-22 10h12.50.439147 -0700,
61,clet,None,sub,o25.png,s7.png,that_is,filler,84,84,0,f,0.07061633304692805,None,0,84,84,60,350.02447399985977,,,,,,,,,350.0160833748523,350.02447399985977,350.02447399985977,350.02447399985977,350.02447399985977,350.10052799992263,f,0.07061633304692805,None,f,0.07061633304692805,f,1,,,,,,,,588197,001,2026-04-22_10h12.33.383,experiment,2024.2.4,None,2026-04-22 10h12.50.439147 -0700,
71,fusk,None,sub,o23.png,s23.png,look,critical,85,85,0,f,0.187415624037385,None,0,85,85,70,350.39957770798355,,,,,,,,,350.39117658301257,350.39957770798355,350.39957770798355,350.39957770798355,350.39957770798355,350.5902621659916,f,0.187415624037385,None,f,0.187415624037385,f,1,,,,,,,,588197,001,2026-04-22_10h12.33.383,experiment,2024.2.4,None,2026-04-22 10h12.50.439147 -0700,
76,kreet,a,obj,o23.png,s19.png,that_is,filler,86,86,0,f,0.13309045718051493,None,0,86,86,75,350.76812287489884,,,,,,,,,350.75999095803127,350.76812287489884,350.76812287489884,350.76812287489884,350.76812287489884,350.90638962504454,f,0.13309045718051493,None,f,0.13309045718051493,j,0,,,,,,,,588197,001,2026-04-22_10h12.33.383,experiment,2024.2.4,None,2026-04-22 10h12.50.439147 -0700,
35,clet,None,sub,o21.png,s4.png,look,critical,87,87,0,j,0.5083227080758661,None,0,87,87,34,351.0927430829033,,,,,,,,,351.0846362079028,351.0927430829033,351.0927430829033,351.0927430829033,351.0927430829033,351.6059101249557,j,0.5083227080758661,None,j,0.5083227080758661,j,1,,,,,,,,588197,001,2026-04-22_10h12.33.383,experiment,2024.2.4,None,2026-04-22 10h12.50.439147 -0700,
62,flane,None,sub,o22.png,s24.png,look,critical,88,88,0,j,0.12801095703616738,None,0,88,88,61,351.897058499977,,,,,,,,,351.88978045783006,351.897058499977,351.897058499977,351.897058499977,351.897058499977,352.0342271658592,j,0.12801095703616738,None,j,0.12801095703616738,f,0,,,,,,,,588197,001,2026-04-22_10h12.33.383,experiment,2024.2.4,None,2026-04-22 10h12.50.439147 -0700,
56,fusk,None,sub,o18.png,s11.png,that_is,filler,89,89,0,j,0.23516070703044534,None,0,89,89,55,352.32283320790157,,,,,,,,,352.3144256658852,352.32283320790157,352.32283320790157,352.32283320790157,352.32283320790157,352.5674270000309,j,0.23516070703044534,None,j,0.23516070703044534,j,1,,,,,,,,588197,001,2026-04-22_10h12.33.383,experiment,2024.2.4,None,2026-04-22 10h12.50.439147 -0700,
93,ses,a,obj,o20.png,s7.png,look,critical,90,90,0,j,0.2592943739145994,None,0,90,90,92,352.8557732079644,,,,,,,,,352.845976207871,352.8557732079644,352.8557732079644,352.8557732079644,352.8557732079644,353.1175162908621,j,0.2592943739145994,None,j,0.2592943739145994,j,1,,,,,,,,588197,001,2026-04-22_10h12.33.383,experiment,2024.2.4,None,2026-04-22 10h12.50.439147 -0700,
95,tharge,a,obj,o4.png,s23.png,that_is,filler,91,91,0,j,0.06572074885480106,None,0,91,91,94,353.4073204579763,,,,,,,,,353.3992414579261,353.4073204579763,353.4073204579763,353.4073204579763,353.4073204579763,353.48433983302675,j,0.06572074885480106,None,j,0.06572074885480106,j,1,,,,,,,,588197,001,2026-04-22_10h12.33.383,experiment,2024.2.4,None,2026-04-22 10h12.50.439147 -0700,
96,tem,a,obj,o9.png,s6.png,look,critical,92,92,0,j,0.14782545808702707,None,0,92,92,95,353.7752371658571,,,,,,,,,353.7675583329983,353.7752371658571,353.7752371658571,353.7752371658571,353.7752371658571,353.93413733295165,j,0.14782545808702707,None,j,0.14782545808702707,j,1,,,,,,,,588197,001,2026-04-22_10h12.33.383,experiment,2024.2.4,None,2026-04-22 10h12.50.439147 -0700,
13,plyne,a,obj,o16.png,s14.png,look,critical,93,93,0,j,0.16123887500725687,None,0,93,93,12,354.24064566590823,,,,,,,,,354.2308228749316,354.24064566590823,354.24064566590823,354.24064566590823,354.24064566590823,354.4063581658993,j,0.16123887500725687,None,j,0.16123887500725687,f,0,,,,,,,,588197,001,2026-04-22_10h12.33.383,experiment,2024.2.4,None,2026-04-22 10h12.50.439147 -0700,
45,stutch,None,sub,o4.png,s25.png,look,critical,94,94,0,j,0.43843262386508286,None,0,94,94,44,354.5796079998836,,,,,,,,,354.5713853328489,354.5796079998836,354.5796079998836,354.5796079998836,354.5796079998836,355.023398749996,j,0.43843262386508286,None,j,0.43843262386508286,f,0,,,,,,,,588197,001,2026-04-22_10h12.33.383,experiment,2024.2.4,None,2026-04-22 10h12.50.439147 -0700,
89,tem,None,sub,o12.png,s8.png,there_is,filler,95,95,0,j,0.5478371251374483,None,0,95,95,88,355.3120008329861,,,,,,,,,355.30370720801875,355.3120008329861,355.3120008329861,355.3120008329861,355.3120008329861,355.8674953749869,j,0.5478371251374483,None,j,0.5478371251374483,j,1,,,,,,,,588197,001,2026-04-22_10h12.33.383,experiment,2024.2.4,None,2026-04-22 10h12.50.439147 -0700,
83,kreet,None,sub,o15.png,s22.png,that_is,filler,96,96,0,j,0.17652691598050296,None,0,96,96,82,356.1564207908232,,,,,,,,,356.1490949578583,356.1564207908232,356.1564207908232,356.1564207908232,356.1564207908232,356.33420562488027,j,0.17652691598050296,None,j,0.17652691598050296,f,0,,,,,,,,588197,001,2026-04-22_10h12.33.383,experiment,2024.2.4,None,2026-04-22 10h12.50.439147 -0700,
16,rop,a,obj,o9.png,s19.png,there_is,filler,97,97,0,f,0.4688634159974754,None,0,97,97,15,356.5020679580048,,,,,,,,,356.4939176249318,356.5020679580048,356.5020679580048,356.5020679580048,356.5020679580048,356.9728742078878,f,0.4688634159974754,None,f,0.4688634159974754,j,0,,,,,,,,588197,001,2026-04-22_10h12.33.383,experiment,2024.2.4,None,2026-04-22 10h12.50.439147 -0700,
14,wis,None,sub,o24.png,s12.png,look,critical,98,98,0,f,0.015099165961146355,None,0,98,98,13,357.2728264578618,,,,,,,,,357.2643265828956,357.2728264578618,357.2728264578618,357.2728264578618,357.2728264578618,357.2928462908603,f,0.015099165961146355,None,f,0.015099165961146355,j,0,,,,,,,,588197,001,2026-04-22_10h12.33.383,experiment,2024.2.4,None,2026-04-22 10h12.50.439147 -0700,
46,praith,None,sub,o4.png,s14.png,look,critical,99,99,0,f,0.041864250088110566,None,0,99,99,45,357.59004466584884,,,,,,,,,357.5816110409796,357.59004466584884,357.59004466584884,357.59004466584884,357.59004466584884,357.63371137483045,f,0.041864250088110566,None,f,0.041864250088110566,j,0,,,,,,,,588197,001,2026-04-22_10h12.33.383,experiment,2024.2.4,None,2026-04-22 10h12.50.439147 -0700,
,,,,,,,,,,,,,,,,,,,,,,,,,,,,,,,,,,,,,,,,357.6338410000317,357.63790783286095,357.63790783286095,359.6342117500026,space,1.994863625150174,None,588197,001,2026-04-22_10h12.33.383,experiment,2024.2.4,None,2026-04-22 10h12.50.439147 -0700,
